acceleration_x_mean,acceleration_x_std,acceleration_y_mean,acceleration_y_std,acceleration_z_mean,acceleration_z_std,gyro_x_mean,gyro_x_std,gyro_y_mean,gyro_y_std,gyro_z_mean,gyro_z_std,activity_mean
0.47415,0.15243307821248425,-1.087175,0.29253464039893345,-0.009374999999999998,0.15163430515552873,-0.2284,0.4720055790630728,0.038775000000000004,0.3490428567287022,-0.6878000000000001,2.508545723455458,0
0.48856,0.1639170155902065,-1.04444,0.2187640121226524,-0.06612000000000001,0.15901684501963934,-0.08812,0.5644702622813712,-0.04851999999999999,0.7173665429890078,0.12196000000000003,2.1713651335047266,0
0.4484,0.15567096710690786,-0.98864,0.23380835742120085,-0.08824,0.1014809489510223,-0.08986,0.2745457939943717,0.037500000000000006,0.3970961029776041,0.004800000000000071,1.8889728359613858,0
0.40806000000000003,0.1437271303547107,-1.02018,0.2362637657365175,-0.0803,0.1377841609184452,-0.060880000000000004,0.5366857339262895,-0.22405999999999998,0.24394783868687991,-0.13285999999999998,1.9265217408583792,0
0.4681,0.19042674444520652,-0.8936999999999999,0.1770778077569293,-0.1692,0.12055801507987765,0.05012,0.17296812423102703,-0.35844,0.6552349792250106,-0.08030000000000005,2.2294547035093584,0
0.48312,0.1950453972797103,-1.04394,0.22559603941558906,-0.13554,0.1482370500246143,-0.023059999999999994,0.3612989523926135,0.08353999999999999,0.2778704518296251,-0.16231999999999994,2.6511604472381523,0
0.4622,0.11045084879710068,-1.03312,0.3007350943937206,-0.08249999999999999,0.10817335623895563,-1.9999999999997796e-05,0.39914175050976564,0.009360000000000025,0.4610383096880345,0.2817199999999999,2.2311192162231044,0
0.47046,0.13777774856630517,-0.9695,0.23532892937333474,-0.1325,0.16396054403422794,0.048960000000000004,0.5421050940546491,-0.1083,0.5910291997862711,-0.00578000000000003,1.8487373683138446,0
0.43308,0.13447437302326418,-1.03416,0.2148772393716933,-0.05834,0.1273072386001676,0.0020199999999999997,0.48185842526617717,-0.14324,0.3731286614560721,0.12722000000000006,1.9472690959392336,0
0.49046,0.1748508879016632,-0.9907599999999999,0.21549784917720172,-0.06198,0.06266663386523964,-0.18102000000000001,0.45611990419186926,0.40115999999999996,0.9802159471259382,0.18251999999999988,1.964869078844695,0
0.4584333333333333,0.17932836734140348,-0.8890333333333333,0.10138699785146679,-0.09733333333333334,0.1654933331990547,0.030733333333333352,0.4579101367444636,-0.22556666666666667,0.7731396661233553,1.4765666666666668,0.9968339597612702,0
0.471,0.3138139894905898,-0.9760500000000001,0.23511300474452718,-0.08495,0.056073567748093224,-0.2531,0.05925554826343268,-0.42585,0.5141373406007387,-1.9929000000000001,1.2641655034053096,0
0.43235999999999997,0.11936449639654163,-1.074,0.34463899228032807,-0.10904,0.10817642072096859,-0.09885999999999999,0.5900065491161941,0.022960000000000005,0.7461102083472655,0.15183999999999997,2.2555116288771377,0
0.5175,0.13595427540169527,-0.9968199999999999,0.23131616242709888,-0.1489,0.12619294750500124,-0.06436,0.4413040255878027,0.10959999999999999,0.6275223501995766,0.24022000000000002,2.1811518922349262,0
0.45036000000000004,0.16294581307907238,-1.00626,0.18065505251722136,-0.0864,0.12125594830770159,0.013239999999999997,0.20333015762547377,-0.00046000000000001595,0.7125817939015843,0.14758000000000004,2.3289439488746826,0
0.42542,0.13716434303418654,-0.97994,0.18245722238376863,-0.11401999999999998,0.12674674354791132,-0.04483999999999999,0.44000368521183997,0.13666,0.4896598952334161,0.060579999999999946,1.9085719155955323,0
0.46758000000000005,0.1304026725186259,-0.9812,0.21112312758198704,-0.13258,0.12661124357654815,-0.10729999999999999,0.43242244969474003,-0.020399999999999984,0.708300088239441,0.09615999999999995,1.938048427671507,0
0.42674,0.14314493703935183,-1.0235800000000002,0.2777966648467905,-0.12692,0.1428161475464172,-0.014060000000000007,0.5436955425603561,-0.09607999999999998,0.4943946672447024,0.06172,2.184530043739385,0
0.38878,0.11376509570162548,-0.96036,0.20600967938424644,-0.10398,0.11333588134390626,-0.05194000000000001,0.5639956409406016,0.11539999999999999,0.18907267121400703,0.07408000000000012,1.848347665348703,0
0.3994,0.08941764367282334,-0.94596,0.17657371831617524,-0.0995,0.09820343680340317,-0.02396000000000001,0.4799809194124283,0.20928,0.4359816819546436,0.029640000000000017,2.1814384664711493,0
0.38978,0.1505592806837227,-0.9359200000000001,0.1632287872894975,-0.07715999999999999,0.12480093349009853,-0.05414000000000001,0.45250225745293254,0.019860000000000034,0.9320072172467335,0.16441999999999993,2.2791078489180805,0
0.43676000000000004,0.15908728107551526,-0.9818999999999999,0.19900192210127018,-0.08448,0.11459165327370051,-0.03696,0.3503596623471372,-0.14156,0.5338207498777094,-0.0012199999999999989,2.2582370097046947,0
0.46499999999999997,0.18045365055880694,-1.0705,0.3013689101417065,-0.051500000000000004,0.10394469683442249,-0.25839999999999996,0.28425692603699204,-0.36819999999999997,0.27492311652532964,-2.35585,1.1197035880088981,0
0.42095000000000005,0.043204224330498024,-1.1162,0.027718585822512517,0.07005,0.02326381310103741,-0.20205,0.13046120112891801,0.9219999999999999,0.22245579336128773,1.41695,0.3516442022840701,0
0.45636,0.14564825093354192,-0.9929600000000001,0.22623331540690456,-0.14601999999999998,0.13746105630323086,-0.08424,0.41344120863793926,-0.0024600000000000025,0.4829222691075656,-0.09437999999999991,2.5295585616862084,0
0.46299999999999997,0.15650452070148005,-1.0233,0.2677282577540145,-0.11163999999999999,0.11584516822034487,-0.07146000000000001,0.4156299832783963,0.07268000000000001,0.6622392445332729,0.16326000000000004,2.2749360349249383,0
0.43651999999999996,0.11773316015464802,-0.9199200000000001,0.220138108922558,-0.11554,0.13184127957510122,0.009000000000000018,0.48388911436402454,0.03524000000000001,0.19724019113760766,0.02030000000000003,1.895565821859004,0
0.43866000000000005,0.14272968506936462,-1.0405799999999998,0.2733392068474627,-0.08794,0.11042772749631317,-0.06410000000000002,0.4770824247444041,0.06658,0.44173999366142974,0.09952000000000005,1.9222020255425807,0
0.45006,0.21085934411355828,-1.02668,0.34112083929305753,-0.07218,0.10483728821368855,-0.008299999999999997,0.25259050853110054,-0.01591999999999998,1.1967488383115317,0.03966000000000003,1.9844807502215787,0
0.43134000000000006,0.14379811542575932,-1.00856,0.21362245434410687,-0.04954,0.12207382192755334,-0.08530000000000001,0.4088852834231137,0.05476000000000001,0.9102162122265236,0.07809999999999997,1.7963972319617953,0
0.40191999999999994,0.12160111841590932,-0.9734,0.29696637014988747,-0.058660000000000004,0.08666881215293076,-0.12772,0.3984078274833465,0.22637999999999997,0.5032708684197804,0.039139999999999994,1.7837297883928493,0
0.44032,0.09766499884810322,-0.9680399999999999,0.2914898849016891,-0.08206,0.07365190425236812,0.0009399999999999964,0.3450352706608413,-0.28236,0.5921237564901445,0.09412000000000002,1.5911329397633625,0
0.40784000000000004,0.12399168520509753,-0.8754,0.19012875900294515,-0.10626,0.08851343400862943,-0.05571999999999999,0.5179095693265379,0.21056,0.5068659122489891,0.028960000000000007,1.7282350774706547,0
0.40815999999999997,0.07258521199252642,-0.9778800000000001,0.2124648253240993,-0.09795999999999999,0.0867457376474487,-0.07002,0.29423101807933166,0.21448,0.43367825285573175,0.10258000000000003,1.7934913958533505,0
0.38415,0.09666149698820106,-0.9919500000000001,0.11561195872400054,-0.06290000000000001,0.1472196318430392,0.03995,0.28828743468975543,0.007550000000000001,0.4219306163340129,0.45489999999999986,2.7376346140418373,0
0.32685,0.1035911434438292,-0.67325,0.06866006845321374,-0.07164999999999999,0.03627457787486988,0.11314999999999999,0.4133039136035371,0.24609999999999999,0.2503158005400378,-0.7712499999999999,2.943756240757716,0
0.46019999999999994,0.14197244450948923,-1.0590199999999999,0.2121842524788303,-0.08802000000000001,0.11022484747097634,-0.11751999999999999,0.4474058303151625,0.10877999999999999,0.6575685226651288,-0.15564,2.6437140565878146,0
0.44424,0.14921567612017178,-0.95916,0.216513182046729,-0.11528000000000001,0.11437546502637705,0.016939999999999976,0.5670811432237894,0.22477999999999998,0.6757347016396302,0.22325999999999996,2.7476661556673876,0
0.44248000000000004,0.1446125582375196,-0.96038,0.20878393616368096,-0.09034,0.12320072240047945,0.013360000000000006,0.5190654419242337,0.03870000000000002,0.7122036646914982,-0.01155999999999997,2.29582527275052,0
0.43529999999999996,0.13345754006424665,-0.9808,0.20435991534545123,-0.11392,0.1175228573512404,-0.14887999999999998,0.7048342691725481,0.12946,0.5728144664723475,0.06032000000000002,2.234888260517738,0
0.45312,0.14456039222414968,-1.0572,0.30954925294692603,-0.10796000000000001,0.1183412776676,-0.13496000000000002,0.6463159776765541,0.06739999999999999,0.34211443260990904,0.0988599999999999,2.491635027045494,0
0.44576000000000005,0.1366671613812184,-1.00504,0.1959975586582649,-0.10329999999999999,0.1332899846200006,-0.0742,0.5711969362662933,0.18924,0.2629034670748942,0.16262000000000007,2.458009785781985,0
0.45146,0.17265495359241798,-0.9767399999999998,0.16443712476201958,-0.10976,0.14732400686921326,-0.019900000000000008,0.5347058583931916,0.02357999999999998,0.7188695653593912,0.08247999999999997,2.1913914978843922,0
0.47797999999999996,0.1578071988218535,-0.9605,0.22407052461223004,-0.1133,0.12475139277779627,0.01986000000000001,0.5988781286706002,-0.09698,0.5896981278586528,0.17132,2.264425073169788,0
0.47286,0.1497174271753292,-0.9740800000000001,0.20304373174269624,-0.05514000000000001,0.11867286126153696,-0.06961999999999999,0.3536187311215287,0.0050199999999999915,0.5190820185673937,0.09554,2.108339930608914,0
0.4497,0.12578340510576105,-0.9510799999999999,0.16659889555456242,-0.05574,0.13891106147459964,-0.08719999999999999,0.446545210477058,-0.06565999999999998,0.6430235944349165,0.15170000000000003,1.9874912867733534,0
0.39205,0.03570889244992064,-0.8561,0.2064751801064719,0.028999999999999998,0.00820243866176395,-0.20305,0.07940809152724927,0.32115,0.09821713190681146,-1.1965499999999998,2.3678884781593914,0
0.46764,0.132368908736153,-0.9975200000000001,0.21707076495926386,-0.04351999999999999,0.12991750074566552,-0.06261999999999998,0.4476792065754227,-0.17094,0.4936769064884441,0.1099800000000001,2.2779935803245803,0
0.45377999999999996,0.1522756612200387,-0.93544,0.19572900398254728,-0.06172,0.12234650383235314,-0.008600000000000007,0.3674421655172417,-0.016079999999999994,0.1765119032813368,0.016500000000000004,2.100779104284884,0
0.4332,0.11913786132040477,-1.0110999999999999,0.20981152256251323,-0.025560000000000006,0.122370249652438,-0.09784000000000001,0.3915774099715151,-0.10714000000000004,0.6564123345885572,0.08889999999999998,1.8480356922960117,0
0.472,0.1223824946632483,-1.0090999999999999,0.21934251753821013,-0.07020000000000001,0.09163866542022532,-0.0023199999999999887,0.5732149221714313,-0.21723999999999996,0.5036154018693233,-0.02868000000000004,1.9717368909162298,0
0.45394000000000007,0.13821211234909914,-1.04192,0.2703074120330407,-0.11358000000000001,0.14602954153184214,-0.07862,0.5487231469511743,0.15558,0.7345064887392078,-0.09232000000000004,2.091789727004127,0
0.47240000000000004,0.12079273570873375,-1.0328,0.3236431831508274,-0.10474000000000001,0.10441821201303918,-0.12810000000000002,0.31220301888354635,0.10309999999999997,0.6265351865617764,-0.00550000000000006,2.0774704221721185,0
0.4567399999999999,0.15304250390006038,-0.9451599999999999,0.2974084111117236,-0.09862,0.08222610291142345,-0.0019599999999999965,0.2254075154026591,0.04354000000000001,0.46574543261313894,0.02588000000000008,2.1250858822645267,0
0.41254,0.1293974999758496,-0.8926000000000001,0.19725475913143387,-0.10529999999999999,0.10445963335183597,-0.07022,0.27376750537636857,0.17795999999999998,0.43357736679859105,-0.08335999999999988,2.230236732501732,0
0.48279999999999995,0.14561646541514456,-0.97796,0.2791117751009441,-0.0871,0.10926531929207914,-0.10197999999999999,0.21542023349722744,0.03186000000000002,0.7469704465372107,-0.015299999999999958,2.240827863759285,0
0.43156,0.1461997024620775,-0.9051400000000001,0.19903667501242078,-0.08170000000000001,0.10829346702363905,0.03438,0.25009086748619985,-0.27640000000000003,0.3487746120347638,-0.16244000000000006,1.8162678390039284,0
0.49169999999999997,0.18379208361624286,-0.9773999999999999,0.332336516200071,-0.1533,0.04725071428031538,0.21726666666666664,0.5780160926248795,-0.1234,0.5075781319166538,0.4912999999999999,1.6678662926026175,0
0.51454,0.13988859138614554,-0.95888,0.22968192571467175,-0.07944,0.08893861928318879,-0.10020000000000003,0.42781249397370336,-0.08186,0.6179576182878563,0.15652,2.496618686744133,0
0.45465999999999995,0.17743649004643888,-0.9707800000000001,0.1962278446092705,-0.11954000000000001,0.12634442211668864,-0.017159999999999998,0.68913144101833,-0.030999999999999993,0.23299909871070318,0.056419999999999956,2.323993487942684,0
0.42957999999999996,0.14579947530769788,-0.98674,0.1159393073983108,-0.11388000000000001,0.1652076783929851,-0.08312,0.6076590466700879,0.010700000000000008,0.5507755758927587,0.019700000000000006,2.2522430730274206,0
0.44306,0.12910462036658488,-0.9676400000000001,0.13960763947578228,-0.08486,0.11947528196242099,-0.04398,0.5494141079368093,-0.012280000000000003,0.2900776051335229,0.14655999999999994,2.2599066491782356,0
0.40208000000000005,0.09457096277399317,-0.9462400000000001,0.16746731919989644,-0.0991,0.12956994250210963,-0.02141999999999995,1.0568627238198913,-0.50274,0.7233158735988033,0.12131999999999991,2.0392498368272585,0
0.47002,0.1262062082466627,-0.9404199999999999,0.181806166012047,-0.1006,0.1632913194263553,0.18166,1.0176843484106455,-0.26311999999999997,0.887116292827496,0.16832000000000003,1.8268937809845434,0
0.44088000000000005,0.15909912633323917,-0.97624,0.17485755059476274,-0.05504,0.12474378942456414,0.14254,0.7003532165985961,-0.35219999999999996,0.8316722491462607,0.14633999999999997,1.56672083601387,0
0.46012000000000003,0.14076843396159525,-0.95778,0.16181116154332495,-0.12118000000000002,0.14599510950713385,-0.05069999999999999,0.569308277649289,0.061040000000000004,0.6880791328037786,0.011040000000000005,1.908022826907477,0
0.41533999999999993,0.10331000919562441,-0.9639599999999999,0.22014532245768925,-0.09212000000000001,0.13541579302282286,-0.024820000000000016,0.4942608693797234,0.15784,0.5979831837100438,0.028699999999999955,1.9159896750765648,0
0.3859,0.13986972510161017,-0.90876,0.19847867139821343,-0.07727999999999999,0.11322573470726521,-0.049319999999999996,0.5260485500407733,0.008979999999999998,0.3988882638032861,0.11480000000000001,2.162774359474423,0
0.41500000000000004,0.07346475345361204,-1.0641333333333334,0.19761503822668286,0.033299999999999996,0.03425536454338211,-0.22513333333333332,0.5351622401976184,-0.08213333333333332,0.6481622970624976,-0.7662,3.00497678360416,0
0.44142000000000003,0.16574524729234322,-1.01912,0.321013889107621,-0.10976,0.11473594903080725,-0.13688,0.554062836689125,0.172,0.6674254340373913,-0.04925999999999995,2.637295397372088,0
0.44486,0.09707586208733869,-1.02288,0.24695682213698808,-0.09146,0.10288052779802406,-0.05775999999999999,0.45650986079163725,0.09931999999999999,0.5305892639320927,-0.034259999999999916,2.3554203134472624,0
0.40838,0.1246871765659966,-0.97674,0.2259303941482862,-0.09284,0.12372323144826117,-0.09358000000000001,0.4278001250584202,-0.05491999999999997,0.802993335588783,-0.15244,1.920437861009827,0
0.42932,0.09935676625172539,-0.99548,0.20156634639740825,-0.087,0.13416845754498335,-0.03706,0.4350375822845654,-0.05876,0.4469820108237019,-0.02978000000000005,2.1562965512656187,0
0.40488,0.09777746161565046,-0.94672,0.16359367958451207,-0.10332,0.11980328459604103,0.02268,0.511796494712498,-0.07482,0.2912949913747231,-0.15309999999999996,1.6695862900730827,0
0.41378000000000004,0.11529140037314146,-0.9559000000000001,0.2406548150359764,-0.1407,0.13320703810234655,-0.13324000000000003,0.367081037374583,-0.0001600000000000143,0.4164703446825476,-0.017359999999999952,1.7456772419321964,0
0.41424000000000005,0.10134304613539104,-0.9850999999999999,0.22784811827179965,-0.11942,0.10238560445687665,-0.13066,0.44225185471629175,0.23905999999999997,0.505816600162549,0.06100000000000003,1.6946634208597293,0
0.39093999999999995,0.09229251323915717,-0.9499000000000001,0.2727618650031562,-0.1101,0.09987699935420566,0.03440000000000003,0.47647045553738165,-0.07086,0.5129829753510344,-0.03423999999999996,1.7143196472653517,0
0.39326,0.08754643339394244,-0.9517599999999999,0.23371407317489465,-0.08856,0.09005594372388753,-0.031159999999999993,0.45557106251385193,-0.17816,0.4145025488462043,0.010059999999999913,1.8096749909859504,0
0.40602,0.09604650956698009,-0.9926999999999999,0.28950590667549425,-0.08614,0.09748142387142282,-0.15020000000000003,0.520499841498535,-0.016419999999999955,0.8954702602543537,0.10218000000000008,1.8908192806294315,0
0.45595,0.17424374689880073,-1.061375,0.24807445622903895,-0.14229999999999998,0.12838847300283618,0.21155000000000002,0.54201973211314,-0.005275000000000009,0.44106550817310575,0.6440250000000001,1.1785658611917567,0
0.43100000000000005,0.23094107473552644,-1.00545,0.36536207383908914,-0.0475,0.0864084486609961,-0.71755,0.1539371462643114,-0.54755,0.3751201474194635,-1.87715,0.08973185053257289,0
0.45430000000000004,0.17801140412906136,-1.0234,0.28273331073646063,-0.1076,0.16530204172967738,-0.03335999999999999,0.7271716255465418,-0.16858,0.5121560865595566,0.07520000000000002,2.315412366080824,0
0.47674000000000005,0.16842276568207754,-1.02032,0.22498501505655882,-0.09546000000000002,0.14135357441536453,-0.024259999999999993,0.3416945609751493,0.030999999999999993,0.44610179331627886,0.06329999999999995,2.228373827480479,0
0.44892000000000004,0.1056880882597467,-0.9210800000000001,0.18252215481962733,-0.12633999999999998,0.11671879882863771,0.050860000000000016,0.35363934735829383,0.32044,0.7373621010060117,0.06570000000000005,2.3462098669982616,0
0.43084,0.10280602122443996,-1.02908,0.2871014054302069,-0.09498,0.10549856397126929,0.0319,0.36958097218336333,0.09092,0.4553536724349546,0.10733999999999999,2.437922376327844,0
0.37986,0.13115289931983967,-0.9134399999999999,0.19994313691647433,-0.10736000000000001,0.11605036837511548,0.0603,0.47724212932221316,0.047159999999999994,0.37580758108372425,0.06312,2.160254961109915,0
0.40874,0.11274771838046214,-0.9741,0.19174438714079745,-0.05222,0.11187795582687414,-0.016660000000000008,0.5650961272208472,-0.04526000000000001,0.6145782317980356,0.13943999999999995,2.060354419268685,0
0.4147,0.07889635606287533,-0.9521200000000001,0.21024366102215788,-0.050839999999999996,0.05830045454368259,-0.005040000000000005,0.33721345317172624,0.2204,0.6089702537891322,0.05934000000000004,2.0377058394184373,0
0.46212,0.16007562900079453,-0.94468,0.21287958333292556,-0.09152,0.10110035608245897,0.009140000000000004,0.4347882277615161,-0.25334,0.5495783047027967,-0.16580000000000003,2.1952374757642965,0
0.41676,0.1409379579815175,-1.0272400000000002,0.31603383204967156,-0.07976,0.1234387418924869,-0.03222000000000001,0.4985986231429044,-0.01734,0.6517880813577369,-0.060659999999999936,1.8673631417054368,0
0.4669,0.18551997197067488,-1.02912,0.39912330425571496,-0.06692000000000001,0.11892183146924706,-0.025459999999999993,0.6346232606830606,0.10092000000000001,0.2980813932468781,-0.04208000000000003,1.6696791569041043,0
0.5115999999999999,0.034082546853191585,-1.205,0.08541849916733495,-0.1475,0.1773423807215861,-0.51665,0.45092199436266145,-0.31310000000000004,0.055295750288788026,-0.34159999999999996,1.8210828042678346,0
0.37213333333333337,0.029992721339240514,-0.9408666666666666,0.1038060370755638,0.0029333333333333342,0.05484836673350751,-0.032299999999999995,0.3100746523016675,-0.028099999999999997,0.3110578724289099,0.7923,2.507333637552051,0
0.42096,0.12349578130446397,-0.9997,0.19971076585902922,-0.09634,0.13267397257940233,-0.1506,0.42799288545488695,0.24167999999999998,0.49156715919597394,-0.08526000000000007,2.3121341890123936,0
0.44216,0.1496076301530106,-1.01082,0.25121756905121106,-0.11616,0.1283619998286097,0.016580000000000004,0.3518494877074571,0.11510000000000001,0.5636407322044779,-0.016699999999999892,2.1656289525216454,0
0.41074,0.12642289349639171,-0.95738,0.290053938087384,-0.08516,0.10093073367413913,-0.10618000000000001,0.33341976096206416,0.2743,0.49123671992227935,0.011719999999999953,1.9969746723481496,0
0.4324199999999999,0.11706518269750402,-1.0065,0.26521833458492267,-0.07284,0.09345610199446583,-0.11052,0.34597462623724295,0.12736,0.6756789274500131,-0.045520000000000005,1.7584988348020025,0
0.42350000000000004,0.13661731222652565,-0.99658,0.28829846860502045,-0.06872,0.10861250848774281,-0.06062000000000001,0.483426852791609,0.06512,0.5054474621560583,-0.0512,1.546525898586894,0
0.41416000000000003,0.14271215084918312,-0.9033999999999999,0.15975022691689672,-0.092,0.1350468067004918,-0.040999999999999995,0.24484668672457058,0.053059999999999996,0.251924061971063,-0.10391999999999993,1.5779072317471643,0
0.41222000000000003,0.12343904163594276,-0.9576399999999999,0.18754249651745605,-0.1071,0.10974588830566728,-0.06936,0.2809170571538866,0.26870000000000005,0.3655466317721995,-0.04297999999999998,1.7386910067634214,0
0.39164,0.10247449926689077,-0.98682,0.2267729635560642,-0.09112,0.10037483250297358,-0.03772,0.35951046160021544,0.21084,0.8409212228264904,-0.011300000000000065,1.7748997957631298,0
0.41448,0.1165530437183002,-0.9614199999999998,0.29728939940737875,-0.07343999999999999,0.11900770143146198,-0.06786,0.08941897449646803,-0.018719999999999994,0.8553760266689732,-0.02582,1.9248602824620804,0
0.44514000000000004,0.12936411016970667,-0.9792400000000001,0.24188863760003276,-0.09137999999999999,0.08596622592623221,-0.002140000000000003,0.25407731697260977,0.024180000000000014,0.5773067442876447,0.14473999999999992,2.1111776199552703,0
0.44505999999999996,0.12230381433136091,-0.95584,0.19357984915791213,-0.06924,0.05700353497810465,-0.17786,0.6197234084654218,0.10704000000000002,1.4025222468823801,0.036800000000000034,1.9220999284636582,0
0.42308,0.1367796293312714,-0.9032,0.16501109053636362,-0.13208,0.11774080431184424,-0.05720000000000001,0.53841336814756,-0.13536,0.9817194268221446,0.1124599999999999,1.6549003211674111,0
0.38402,0.12494931772522809,-1.01888,0.2734175506436995,-0.14506,0.10686520949308058,-0.14786,0.8575512451159989,0.21071999999999996,0.8875061081479947,0.052180000000000025,2.3270987359800617,0
0.32342,0.1573135626702288,-0.96538,0.23255536330087062,-0.12057999999999999,0.11034136577005017,-0.22593999999999997,0.6407657824821796,0.5139400000000001,0.9745549897260801,-0.015719999999999956,2.396907108546345,0
0.41498,0.1459405769482908,-0.95706,0.20451897955935533,-0.13154,0.11380543923732292,-0.05304,0.599588261225985,-0.49391999999999997,1.1632842374071781,0.02198000000000002,2.115858004923771,0
0.43191999999999997,0.1653331696907792,-1.0405000000000002,0.19565990902584016,-0.12132000000000001,0.1430852787675937,-0.05524,0.5911229000808546,-0.11166000000000001,0.6297484839203664,0.013919999999999978,2.0156130536390164,0
0.4431,0.10229381701745222,-0.98342,0.20782578521444345,-0.13496000000000002,0.13628181463423505,-0.02405999999999999,0.5447322030135542,-0.20566,0.7971916287819385,-0.06292,2.1707583264840884,0
0.43927999999999995,0.1393045476644607,-0.97614,0.22554510191977123,-0.17942,0.1468465423494881,-0.06276,0.5895131915402742,0.20604,0.40173776645966464,0.020560000000000044,2.2108561889005807,0
0.43045999999999995,0.1303753542660575,-1.00238,0.24044485230505555,-0.13390000000000002,0.13677624062679894,-0.08796000000000001,0.5173058167080667,0.16998000000000002,0.5825205335436683,0.034360000000000036,2.090289521334306,0
0.40081999999999995,0.12427939089004257,-0.97882,0.2590953338059178,-0.11217999999999999,0.11209438879801255,-0.060520000000000004,0.5202353765364289,0.058640000000000005,0.5791980041402076,-0.12767999999999996,1.8803883925934024,0
0.4099666666666666,0.14994353381634476,-0.9467,0.10146807379663815,-0.19973333333333335,0.1302084994665607,0.13360000000000002,0.6708228603737353,-0.023933333333333348,0.35458322483351257,0.2793333333333334,1.5502792565642272,0
0.4578,0.13089693146390663,-0.9222250000000001,0.2771317421372009,-0.16512500000000002,0.0954371477291032,0.048799999999999996,0.592470730641326,0.046675,0.1552323070970301,0.515875,2.332293079603562,0
0.41162,0.15092565057007373,-0.94192,0.18399942119474177,-0.10417999999999998,0.13158099026835146,-0.04258,0.6356979880414912,0.07392,0.39919756637534753,0.11592,2.2423905641078674,0
0.43194,0.09196938621084735,-1.00862,0.14835311590930608,-0.09330000000000001,0.11783757889569864,0.006999999999999995,0.5787236516680478,-0.07232000000000001,0.7035708578387823,0.017060000000000054,2.18922549615155,0
0.40668,0.14830356367936676,-0.95846,0.1870716921396714,-0.06914000000000001,0.10150200983231811,-0.125,0.7219064482327332,-0.0319,1.1539530038090806,-0.01085999999999998,2.082036728302361,0
0.39874,0.13208642246650484,-0.9718,0.22032123138726328,-0.1243,0.12244780520695338,-0.0009600000000000275,0.7944255773828031,-0.09114000000000003,0.6219865778294577,-0.062320000000000084,1.9755606449815706,0
0.41747999999999996,0.12969441776730406,-0.95516,0.2694714140683571,-0.14578000000000002,0.149704532329519,-0.07535999999999998,0.7832218414983075,0.20044,0.20970613486495804,0.03519999999999999,1.7606074108102578,0
0.37844,0.0873167395176893,-0.93882,0.2149495452425987,-0.08336,0.10308480974421014,-0.09492,0.6272543957598066,0.19684000000000004,0.526683560594025,0.08984000000000006,2.133164278249568,0
0.44802,0.11667438450662597,-1.02026,0.19338723587662143,-0.08134,0.1300920366509803,-0.08475999999999999,0.6498752403346353,-0.15908,0.609488963804924,-0.013000000000000034,1.880765340227217,0
0.39114,0.08142974272340543,-0.94274,0.1717174801818382,-0.09215999999999999,0.13778540561322158,-0.10106000000000001,0.7012734152953468,0.184,0.7512244637922809,-0.04404000000000004,1.6857719042029382,0
0.41196,0.12066253768257983,-1.00996,0.2222864098409977,-0.10773999999999999,0.1277036921940787,-0.10848,0.6886709097965442,0.06852,0.41206752723309803,-0.14163999999999993,1.8628748811984126,0
0.40259999999999996,0.08419801066533579,-0.9506,0.15412600364636717,-0.08848,0.11872049949355838,-0.07371999999999998,0.6844583383961363,0.1031,0.1581576270686937,-0.037739999999999975,2.195392671710462,0
0.47565,0.1789687263183151,-0.912,0.29500494911102765,-0.2027,0.09644936495384505,0.29855000000000004,0.6493361571636066,0.31089999999999995,0.2057680733252853,0.7595500000000001,0.9061573400905607,0
0.4150600000000001,0.1044800842266123,-0.91034,0.1233285165726078,-0.11972000000000001,0.1305404994628104,-0.01794000000000001,0.47529963496724886,-0.1055,0.6278570338858999,0.17254000000000005,2.507810334335513,0
0.42532,0.12487188234346437,-0.98072,0.19392899989429127,-0.08556,0.07424825250468862,0.03535999999999999,0.4997988425356746,-0.09466000000000002,0.5427954108133193,-0.007339999999999991,2.4312336925931244,0
0.42425999999999997,0.09301227338367772,-0.9312799999999999,0.085859227809246,-0.11446,0.13671593908538976,-0.12218000000000002,0.44714885329160803,0.029059999999999996,0.3604529137071859,-0.07766000000000002,2.275725792576953,0
0.41964000000000007,0.13009146013478365,-0.9616999999999999,0.20298620642792448,-0.13828000000000001,0.14534865668453906,-0.03398000000000001,0.6264556544560835,-0.005139999999999989,0.9559170115653346,-0.10013999999999994,2.3772402240833803,0
0.37473999999999996,0.06990138053000099,-0.95206,0.2192923573679667,-0.10664,0.09418212675449626,-0.11846000000000001,0.6170710437218716,0.032199999999999986,0.5274933174932172,-0.053099999999999925,1.9858712558975216,0
0.42724,0.12146072616282187,-0.99658,0.22972310941653215,-0.12404,0.11438912972830943,-0.10766,0.5028182007445633,-0.024300000000000006,0.7006843547561198,0.007420000000000071,1.7421685902919954,0
0.39506,0.1332454239364339,-0.9815400000000001,0.20550382721496946,-0.13242,0.13184683158877955,-0.10636000000000001,0.759238041064856,0.10543999999999998,1.003243830282549,0.12289999999999993,2.1231918813428052,0
0.39468,0.1216841690607287,-0.98194,0.2552365530248361,-0.13938,0.12755811224692845,-0.1203,0.7039976953087276,0.01402,0.3416306880243635,-0.08876000000000009,2.013752465671985,0
0.39584,0.08655150489737311,-0.9796800000000001,0.2225164645593669,-0.11624000000000001,0.10123656947961049,-0.10182,0.5446155038189787,0.1015,0.5696917017124262,-0.06772,2.0257716547034614,0
0.42056000000000004,0.15822347487019744,-1.02014,0.23484934106784291,-0.11540000000000002,0.12553294388326916,-0.08180000000000001,0.5467703265540295,0.008579999999999987,0.5349446064780913,-0.06232000000000006,1.7763254479402135,0
0.34854999999999997,0.16949349545041545,-0.76665,0.043911331111684514,-0.1839,0.11568266940211916,0.61375,0.3151574923748442,-0.33420000000000005,0.9082079497560017,1.3363,0.45127554775325457,0
0.46255,0.13693113841149013,-1.077975,0.24913260692517414,-0.191675,0.08853211752428232,-0.13735,0.5458828598396058,-0.08757499999999999,0.5953209743491321,-0.24985,1.3581084603226652,0
0.43343999999999994,0.09688417311408506,-0.9745999999999999,0.21076254411066497,-0.14448,0.1030333052949385,-0.028839999999999977,0.565517597427348,0.08062000000000001,0.36931953238354454,0.14886000000000008,1.804079017947939,0
0.39130000000000004,0.09385009323383756,-0.9752600000000001,0.2912101011297513,-0.152,0.13039129572176206,0.02025999999999999,0.7162682130319619,0.07293999999999998,0.722117149775575,0.1340799999999999,1.7682238000321113,0
0.37262,0.08989781421147013,-0.89062,0.16571414242604648,-0.15738,0.1290018100648204,0.07329999999999999,0.5959618653907311,-0.04724000000000001,0.30936606633566,0.013159999999999982,1.8784329274690645,0
0.39486,0.11936099865533968,-0.9559999999999998,0.19614776317868118,-0.13012,0.12489546428914061,0.01542,0.6958132989531027,-0.047700000000000006,0.22364693156848814,0.02510000000000002,1.782541094897955,0
0.37736000000000003,0.08125486446976574,-0.95828,0.21135981642686955,-0.11234,0.09739611388551393,-0.017020000000000014,0.6815197260534723,0.055459999999999995,0.2849487725890392,0.02450000000000001,1.6577493598249404,0
0.37858,0.07140474073897338,-0.91662,0.2104358025622066,-0.1299,0.10395044492449276,-0.014640000000000009,0.6539507305600323,0.05933999999999999,0.5617433559909721,-0.07289999999999996,1.6304345862376695,0
0.37428,0.1030867935285602,-0.9265399999999999,0.2536565650638674,-0.1643,0.13589725898633864,-0.06607999999999999,0.7072403495276554,0.31822000000000006,0.6919343372025991,-0.10063999999999998,1.8544825027484082,0
0.4319,0.16508314571754437,-0.9979199999999999,0.29037301355325706,-0.13548,0.12770973729516477,-0.029799999999999983,0.6866484435284188,-0.25782,0.41697725597447155,0.03298000000000003,1.6332125847543548,0
0.40464,0.16266646243156577,-0.9948599999999999,0.25467415063174353,-0.14458,0.12166171131461205,-0.1317,0.44644628456287994,0.20321999999999996,0.33742813605270083,-0.005719999999999903,1.6946513142826758,0
0.45337999999999995,0.14703170406412353,-1.00076,0.23995004271722897,-0.1606,0.12480755185484571,0.025780000000000004,0.5521441632400003,-0.37045999999999996,0.9077381880256002,-0.03428000000000005,1.7549242909595844,0
0.45504,0.07849046438899442,-0.9331400000000001,0.2363904355087151,-0.1913,0.06630328046182933,0.19536,0.6371518877002563,-0.0037799999999999835,0.7260226387654864,0.7658400000000001,1.7078823460648571,0
0.41600000000000004,0.14219702880158924,-0.94248,0.17543405313678412,-0.16124,0.11401233705174191,-0.0012599999999999723,0.5472145310570617,0.16018,0.46433205467639216,0.21251999999999996,1.8580623743566846,0
0.41002,0.09411932320198654,-0.9977600000000001,0.29436963668150284,-0.15732,0.12231913995773515,0.011359999999999992,0.6307727586064572,0.17886000000000002,0.49138708570738815,0.15011999999999998,1.7468795871496123,0
0.4095,0.11248410998892244,-0.92204,0.17514020954652307,-0.1562,0.1255221892734508,0.09479999999999997,0.7207131641644962,-0.09916000000000001,0.325754544097239,0.12007999999999996,1.8542077572375755,0
0.40587999999999996,0.118146993190686,-0.9685400000000002,0.20065639287099726,-0.13026,0.10926707189267955,0.027780000000000006,0.8662788448300005,-0.04142000000000001,0.4282366250100521,0.006539999999999946,1.7866138343245863,0
0.39836,0.08686347333603464,-0.9110400000000001,0.22812477506838227,-0.15034,0.11920573811692121,-0.03974000000000004,0.7923860126226359,-0.09662,0.5867876208646532,-0.10788000000000006,1.687196241401693,0
0.4189,0.13327871172846772,-0.97188,0.32618641449330776,-0.16044,0.14110638894111066,-0.08642000000000001,0.787697119456457,0.24486,0.48226753259990457,-0.007360000000000017,1.420426123738929,0
0.37804000000000004,0.11110989154886255,-0.98278,0.2696416826086056,-0.13528,0.11591405005433984,-0.10368,0.6636187663108992,0.07265999999999999,0.35503687554956875,-0.05719999999999999,1.5397110654275366,0
0.41075999999999996,0.07897656614464825,-1.0087,0.17411316722178136,-0.13686,0.10717041569388448,-0.019199999999999995,0.7250864638096617,-0.27958,0.8533953550377457,-0.09278,1.4114385417013382,0
0.38316,0.06972390551310217,-0.89686,0.19556673541274855,-0.15802,0.13122616736002007,-0.14953999999999998,0.8172540504641136,0.14506000000000002,0.39554947604566487,-0.03774000000000002,1.4674675424008532,0
0.4224,0.12305145265294516,-0.930825,0.27276533717953727,-0.16667500000000002,0.1475736285158474,-0.22697499999999998,0.666570558280717,0.02472499999999999,0.27463395486841513,-0.3419499999999999,1.4313688564913425,0
0.6358750000000001,0.6481842144277608,-0.30075,0.6668986054866212,-0.052275,0.18288253743865213,0.13685000000000003,1.6451998348731582,0.347725,1.5501320682982684,-0.14749999999999996,2.7849955870701124,1
0.82656,0.6857238861232704,-0.13880000000000003,0.6890401983919371,-0.16632000000000002,0.11748624174770424,-0.40022,1.3749082431202453,0.59002,1.3533709218096863,0.24867999999999996,2.279131360189667,1
0.5647,0.39016530471070854,-0.08282000000000002,0.6985978005977402,-0.08058,0.09274247678383406,0.40618,1.4852874661155664,0.31384,1.0241097807364208,-0.61376,2.2387210976358802,1
0.70828,0.5319614995467247,-0.40806000000000003,0.6272039086294026,-0.00634,0.11940309041226696,0.50536,1.824360718991724,-0.03024,1.4648311824234217,-0.433,2.5828681315545317,1
0.67736,0.40863493854539634,-0.26242,0.7022008558809937,-0.05714,0.10869127379877375,-0.24588000000000004,1.638387701980212,0.33158,0.9107066580408864,0.4127600000000001,2.6289383414222556,1
0.6803,0.5411190950243763,-0.07239999999999996,0.7704122630124731,-0.040600000000000004,0.11239165894317958,-0.27456,1.894546707790547,0.6204,1.5065467201517515,0.3755399999999999,2.44766118325229,1
0.71914,0.29517676568456397,-0.1167,0.6984570101301869,-0.17416,0.1304212521025619,0.51102,1.711468692965197,0.7634399999999999,1.0466965692119183,-0.39494000000000007,3.1506929972626656,1
0.7478800000000001,0.47506459771277426,-0.30656,0.7005155408697226,-0.11712,0.1041528780207249,0.58704,1.6264537690939758,0.99488,1.1164373323209862,0.037959999999999994,2.110648081277407,1
0.83618,0.49274780770694454,-0.34614,0.8093865813071032,-0.16048,0.17976834259679875,-0.14732000000000006,1.7896634312071082,1.2877800000000001,1.1861508828981244,1.25358,2.5648753687070256,1
0.7461599999999999,0.3336523385202028,0.091,0.9106151849162191,-0.1075,0.14063020657028133,0.08164000000000002,1.5612404100586175,0.83848,1.2977574800400882,0.6518,2.2165721215426313,1
1.9869999999999999,1.981313200884706,-0.39305,0.34513881989715384,-0.1498,0.011596551211459367,1.58195,0.3932220810178392,0.5851999999999999,1.7812019818089133,-1.06185,0.939674201518803,1
2.82885,0.9331688191318868,-0.9846,0.12402652942012043,-0.29595,0.26778133803534554,0.6517999999999999,2.3767273129242232,0.9859500000000001,2.965676550974499,0.53935,3.80190103040571,1
0.94634,1.869362142015292,-0.37904,0.7248086906211874,-0.1371,0.33180251656670723,0.29324,1.2987307950456861,-0.33311999999999997,0.6481088889993718,-0.17619999999999997,1.597821897146237,1
1.7342,1.7355558288340942,-0.41774000000000006,0.8836205367690364,-0.43002,0.3680293697519262,0.11107999999999998,1.0553146151740722,-0.60058,0.7741507650322385,0.1632200000000001,2.526296984125184,1
1.3213000000000001,1.9941939186047077,0.01661999999999999,0.8784267453806265,-0.28598,0.4360822881062701,0.045559999999999934,1.0615026250556332,0.016080000000000004,0.5202515997092176,-0.16441999999999996,1.934104351373007,1
2.18572,2.2480210034605994,-0.47151999999999994,0.9822753086584229,-0.45524,0.45264105867674004,0.21892,0.6963173249316722,-0.92362,0.9545235811649705,-0.55062,2.5020636746493885,1
1.0134,1.782603443001275,-0.4744,0.9159557276418986,-0.36458,0.662910048196586,0.32867999999999997,0.6300905149262287,-0.51728,0.4646892154978422,-0.07530000000000003,2.28112081990411,1
1.64732,1.769817246780017,-0.57768,1.0863072986038527,-0.5497400000000001,0.5992840086302987,0.06539999999999999,1.0004663812442676,-0.43738,0.8823828460481312,0.24055999999999994,2.645255865318136,1
1.22014,1.855314493017289,-0.08191999999999999,1.1002938684733274,-0.34164000000000005,0.2871983861375269,0.22139999999999999,0.9045053123116525,-0.11106000000000002,0.7645727879018452,0.04271999999999996,1.851075174594484,1
1.9054000000000002,1.952518586339193,-0.5279,0.9000287995392148,-0.38549999999999995,0.4044090750712699,0.5558,0.8943599806565586,-0.47888000000000003,1.0058560841392767,-0.73002,1.7980669250614674,1
1.1598,2.0508644409126604,-0.36616,0.8133274820144712,-0.28562000000000004,0.3815606137955017,0.21597999999999998,1.1841191439209147,-0.020979999999999988,0.38621361576205465,0.10190000000000006,1.6997308125112045,1
1.7218,1.641202843953178,-0.4822,0.9189820319244549,-0.41896000000000005,0.3176505202262386,0.08126000000000005,1.0953932001797346,-0.39331999999999995,0.9262745041293104,0.040220000000000054,2.5002311437145166,1
1.95755,2.420780065392145,0.34125,1.2707415964703446,-0.33425000000000005,0.09510586206959062,0.60775,1.528976992959672,-0.23570000000000002,0.1769181166528742,-1.4861,1.4354267658086914,1
1.1756199999999999,1.3575645240650627,-0.409,0.6900595264178302,-0.20004,0.2664452908197103,0.41512000000000004,1.2609794911099863,-0.34334,1.4395527336641751,-0.6487399999999999,1.9466412620203035,1
0.6438200000000001,0.8962901717635869,-0.41012000000000004,0.4443740732761082,-0.29658,0.3770513055275104,0.08070000000000001,0.8853475955804025,-0.16238000000000002,0.9929472176304237,0.15456000000000003,2.324897486557203,1
0.71894,0.7906853944521803,-0.2788,0.5524020275125716,-0.39402,0.40642125559571807,-0.26731999999999995,1.2750847646333165,0.57086,1.4346168958993895,0.11762000000000002,2.827044736469517,1
0.6216999999999999,0.8823567674132726,-0.20504000000000003,0.5908734449947806,-0.27544,0.34637934118535424,-0.08191999999999999,1.0061130711803719,0.36026,0.8113676774434634,-0.7066800000000001,2.079362892089786,1
0.8203799999999999,0.5396122607947302,-0.30304000000000003,0.49823466158026375,-0.26116,0.21466797152812528,0.28629999999999994,1.428433601887046,0.2658600000000001,1.1921182839802433,-0.31192000000000003,1.7815388508253196,1
0.70988,0.5962100192046423,-0.4367,0.48373498426307765,-0.15508,0.2914116795874867,-0.23226,1.3353293013335699,0.10763999999999999,1.1401972430242058,0.14712000000000014,2.5539196183513684,1
0.9952400000000001,0.9167981364509855,-0.18657999999999997,0.5317675873913339,-0.33328,0.38863250250075587,-0.49068000000000006,1.385148055985352,0.73796,1.2365922965957696,0.16281999999999996,2.2216774320319317,1
0.5569599999999999,0.5990252565626929,-0.08894000000000002,0.5598723899247041,-0.21652,0.33660666511523507,0.0329,1.1810403803426874,0.04190000000000001,0.9253948724733675,-0.75394,2.3331583011017494,1
1.0443200000000001,1.0714601285162224,-0.39748,0.641058524629382,-0.33346,0.38122646550311795,0.25449999999999995,1.607365768890205,-0.19505999999999996,1.5011799302548645,-0.80124,2.293539171891337,1
0.7482399999999999,1.339314307024307,-0.40718,0.5730022225087787,0.00494,0.2643860775456983,0.04520000000000003,1.5310772171905636,-0.036159999999999984,0.9885460297831355,0.4041000000000001,2.406134085000252,1
1.3971,1.3151828732157365,-0.11903333333333334,0.7339015011112413,-0.35719999999999996,0.21733152095358832,0.31549999999999995,1.3390034055221816,-0.4872666666666667,2.1535643578340844,-1.4784,2.476209983018403,1
1.4314500000000001,2.52514902629528,-0.8587,0.3157938884779122,-0.11335,0.6520231629321155,0.9557999999999999,1.5733125881400682,-0.73905,1.764443551094792,-0.4417,3.86546993003438,1
0.8896200000000001,1.3702749366459273,-0.33083999999999997,1.0718044705075642,-0.7556,0.9702699418203162,-0.24106,0.7028708971070007,-1.55192,1.5795036156970328,-0.6229999999999999,2.5432838880077857,1
0.23851999999999998,0.9590689714509587,-0.31896,0.5285812028439907,-1.32686,1.1605704063088977,0.19055999999999995,1.8589674547984967,0.9570000000000001,1.105006171928465,1.2728,2.331209983034561,1
1.2632999999999999,1.7933030990326202,0.011299999999999977,1.0914425110833827,-0.70932,0.8036911950494419,0.03948000000000001,0.6141748220173145,0.40906000000000003,0.7424941501453058,-0.29776,2.607436831066095,1
1.8148399999999998,1.9720679331605186,-0.35744000000000004,0.8142736198600566,-0.5129400000000001,0.4985022146390124,0.43520000000000003,0.9608424948970564,0.6769399999999999,1.3061641485663276,-0.37706000000000006,2.457979085142915,1
1.42962,2.110990854314627,-0.23485999999999999,0.818863329866468,-0.29438000000000003,0.49441221364363563,0.7294400000000001,1.4472699637593534,0.92652,1.6308887077296232,0.509,2.0168128805122207,1
1.57906,1.2547450470115433,-0.26596000000000003,0.8601702726786133,-0.14118,0.15130562448237012,-0.4163,2.13964309757492,1.07228,1.0056627774756308,1.20574,2.0649755647464696,1
1.34514,1.6547242422832873,-0.1526,1.0002940392704536,-0.1387,0.22190772857203508,-0.07671999999999998,1.4331416022152172,0.82132,1.4408573652516754,0.7611399999999999,1.6787868366770093,1
1.97466,1.7778335363582272,-0.29047999999999996,0.8661426539548783,-0.10458,0.15802742483505827,0.38834,1.7325600561019523,0.33442000000000005,1.3155119277300378,0.2860400000000001,2.671379643180654,1
0.77534,0.9598460517187118,-0.34492,0.7303858651425286,-0.30054000000000003,0.28800991823199423,0.45258000000000004,1.5645043470697038,0.71088,1.4654022458014728,0.93782,1.8124846722110508,1
1.37942,1.181706036626707,-0.4591,0.8127541294881251,-0.23258,0.14488896438307508,-0.25189999999999996,1.756771500508817,0.93618,1.1389868686688185,1.37332,2.344063143774075,1
1.1604999999999999,0.7464219182205194,0.2092,0.5784133470105959,-0.34230000000000005,0.07014499269370554,0.45754999999999996,1.7343208022162453,0.4497,0.3177737874652345,-0.5958000000000001,2.188354066416127,1
-0.019350000000000006,0.5946060922997678,-0.5548,0.13944145724998713,0.01895000000000001,0.2567504722488354,0.42885,0.5591093318842032,-0.44105000000000005,1.2203955936498625,0.5899,1.6093750339805821,1
0.74838,0.8706291615837365,-0.26124,0.4883560002702946,-0.26792,0.24945310581349753,-0.08572000000000005,1.1869899460399822,0.013140000000000018,1.0226594169125907,-0.10544000000000002,2.106176394084788,1
0.7878399999999999,1.1342848156437608,-0.029400000000000003,0.7773024282735774,-0.19462000000000002,0.31277019039544035,0.22313999999999998,1.1249624340394662,-0.38536000000000004,0.49341920615233453,-0.3862,2.064963008143245,1
1.7820799999999999,1.799948187309846,-0.37778,0.8458345476510167,-0.3217,0.3410763477580936,0.36604000000000003,1.097162603263527,-0.67108,0.43422097715333835,-0.8603200000000001,2.280939418748337,1
0.96524,1.8285880298744166,-0.3532,0.6794188104549359,-0.18662,0.42193679265975376,0.3437,0.7740544974354197,-0.40662000000000004,0.43833069365491617,-0.0032399999999999985,1.6477761416527428,1
1.7626000000000002,1.952483820675603,-0.35479999999999995,0.7409071061880834,-0.20099999999999998,0.4257782462738086,-0.11305999999999998,1.1396484427225793,0.38127999999999995,1.4249668476845347,0.5886600000000001,2.2046947947505116,1
1.2985399999999998,1.785940999305408,-0.12196,0.9463652798998916,-0.23482000000000003,0.12427013720117959,0.18291999999999997,1.0736529057381625,0.19205999999999998,0.9814924289061022,0.05775999999999992,1.289530559157091,1
1.7281,1.7617883783247068,-0.07748000000000003,0.7465564258647835,-0.27086,0.3258063581331709,0.53246,1.349861762552003,-0.251,0.7430410991324773,-0.3724,1.7146675873183117,1
0.9500400000000001,1.6199762723570985,-0.22157999999999997,0.6213434613802579,-0.14434,0.20306924434783324,0.32372,0.9231153405723469,-0.35894000000000004,0.6631876303128701,0.03167999999999991,1.6006561645150403,1
1.7517800000000001,1.7346275355245575,-0.20166000000000003,0.8410247933325152,-0.42116,0.24986228807084918,-0.024819999999999932,1.2774224602691155,-0.40024,1.1183347611515972,0.77516,1.757008619216195,1
1.27922,1.9787219933583395,-0.0007200000000000095,0.925634902107737,-0.3023,0.3901467736634509,0.08934,1.2432028446717778,0.16957999999999998,1.482561592986949,0.16107999999999995,2.470732082197501,1
1.8343999999999998,3.4368217992790955,-0.60105,0.3901108111806183,0.05265,0.13498668452851192,1.5439,0.42185990565589426,-1.18465,0.181655732086824,-0.3778,1.1783227401692629,1
1.636,1.9036805693182874,-0.8039000000000001,0.18041959427955717,-0.224,0.3704482285016356,-0.4398666666666666,2.4686183308347474,0.2573666666666667,2.0656680815981385,1.3526666666666667,3.3276816273996728,1
1.0153,0.7751769765672869,-0.48224,0.5675752443509142,-0.32986000000000004,0.34930301745046527,0.21746,0.8382229912141518,0.23216,1.058226224868766,-0.24887999999999993,1.9008146982281044,1
0.6305799999999999,0.7866900196392478,-0.33998,0.8531432658117861,-0.23306,0.2201992347852281,0.20054,1.0978085365855013,0.7137399999999999,1.0400784936724727,0.6190199999999999,1.8289256428296914,1
0.35014,0.2717627697091711,-0.73432,1.0654220417280658,-0.08158000000000001,0.09826732417238193,-0.5047200000000001,0.8107675110659035,0.21108,0.9834436953888108,-0.8105399999999999,1.5736558464289452,1
1.3331,1.4566968370254672,-0.79002,0.9513924805252563,-0.31032000000000004,0.5613199506520323,0.78738,0.8729677525544686,-0.52756,1.1487842804460722,-1.4396799999999998,2.323103440873867,1
1.0440999999999998,1.8418972284033654,-0.50302,0.917310202167184,-0.3358,0.697670233706441,0.23336,0.8966737996618391,0.029640000000000007,0.843107008629391,-0.25417999999999996,2.2253887608685368,1
1.48408,1.4837411185917846,-0.41891999999999996,0.8635387929907955,-0.51596,0.5598751048224953,0.06310000000000002,0.9835662001105976,0.27437999999999996,0.6201760774167285,0.08482000000000008,2.245110179256243,1
1.11362,1.7557358420331917,-0.1998,0.9879734890167853,-0.36354000000000003,0.5954599256037303,0.19204000000000004,0.7218409540889184,-0.22671999999999998,1.1810782476195216,-0.7057,2.0686014720095316,1
1.9040199999999998,2.0506558285095036,-0.60774,0.9382142921529175,-0.80372,0.8114004017746109,0.34542,0.7450716858128485,-1.04466,1.210498700123218,-0.5822,2.1257438074706934,1
0.6945,1.282397089438369,-0.40518,0.8945928749995721,-0.4436,0.7675746120085005,0.45146,0.6966928326027189,-0.59466,1.0057361647072256,0.14359999999999992,2.0390513848356053,1
1.6966999999999999,1.7008736696180584,-0.6108,0.9366022875265682,-0.80152,0.762723643923538,0.09895999999999998,0.9759841663674672,-1.50328,2.142073637156295,0.34243999999999997,1.8861040130385174,1
1.03414,1.1005074206928365,-0.45621999999999996,0.6150370533553242,-0.23928,0.4075597036018158,0.45474,1.6278632875644072,-0.27769999999999995,1.7856688452789895,-0.7124,2.533787734795478,1
0.48907999999999996,0.4141281890912523,-0.4084,0.5665072153115086,-0.17852,0.370687573301291,-0.20620000000000002,0.7452126139565809,-0.25992,0.8871657663593653,0.17151999999999998,2.189339344870959,1
1.17488,0.9623222547566902,-0.3551,0.5429154492183843,-0.47284,0.5211426081218077,-0.013880000000000003,1.2026264993754294,0.004479999999999995,0.9012679163267714,-0.13567999999999997,2.2800262996290197,1
0.93028,1.342514354485642,0.09655999999999999,0.6546156146930808,-0.27715999999999996,0.3816478979373527,0.19590000000000002,0.8801768259844154,-0.43122,0.8229147264449701,-0.4591200000000001,2.5489957585292293,1
1.35016,1.3752292292559813,-0.38596,0.6603735859345073,-0.20654,0.32673606779784814,0.5124,1.2024158078634861,-0.40042,0.9502880652728414,-1.14808,2.266375846367941,1
0.8644000000000002,1.5239508932377055,-0.32886,0.6146558248320763,-0.14287999999999998,0.3851669209576544,0.0038999999999999924,1.1127716791867053,-0.13485999999999998,0.9982471452501129,-0.08170000000000002,1.9974446475434555,1
1.159,1.2861819836244013,-0.2291,0.5874128318312429,-0.3049,0.286431414129107,-0.17014,1.616290237859525,0.30032,0.9236718529867628,0.3070399999999999,1.9722505984281005,1
0.6808599999999999,1.2650817969601806,-0.06377999999999999,0.7947026972396658,-0.25354,0.348118719692004,0.35107999999999995,1.2620948922327513,-0.017479999999999978,1.2670886697465178,-0.41023999999999994,2.028539003322342,1
1.42874,1.4680413934899792,-0.40793999999999997,0.6051622699739302,-0.20578000000000002,0.3086513761511521,0.5059400000000001,1.5517988313566937,-0.01751999999999999,0.6389539161786241,-0.89046,2.48919512553757,1
1.03938,1.7330611131751819,-0.43938,0.7338800017714068,-0.11708,0.3769730388237334,0.046120000000000015,1.042402149844291,-0.29976,0.9164014556950464,-0.08743999999999999,2.396292099890996,1
1.3243,0.952330189587624,-0.12446666666666666,0.7720924642381464,-0.38233333333333336,0.23334395928185786,0.1252333333333333,0.8555254545209823,-0.29136666666666666,0.32064211097941164,-1.246,2.5370913641412285,1
-0.07369999999999999,0.26672067786356574,0.13349999999999995,1.1134103376563378,0.07615,0.3407547578537973,0.0537,0.13251181079435903,0.24025,0.29677271606399397,0.3739,1.8517712385713307,1
1.56578,1.5792919131686831,-0.53056,0.730449278184324,-0.37073999999999996,0.4817682876653464,0.6855800000000001,1.00794560468311,-0.7794000000000001,1.5541950665859159,-0.66848,2.5434629615938977,1
0.8351799999999999,1.6194598349449731,-0.44966,0.7493165772889319,-0.29416000000000003,0.5432262631721704,0.51324,0.9599629201172303,-0.4107,0.5927312966260514,-0.14154000000000003,1.9304143876380535,1
1.62386,1.6483337292550926,-0.61702,0.9885970599794439,-0.52044,0.48776989759516737,-0.0015200000000000547,1.098681626769102,-0.11328,1.0057957630652457,0.07523999999999997,2.1474357354761513,1
0.95472,1.430078519522617,-0.06956,0.9888419631063399,-0.52352,0.626624294932777,0.38654,0.4724276378452048,-0.7007,1.3995814624379674,-0.4488,2.3201523387484713,1
1.82272,1.794792459311104,-0.37882,0.8600141086052018,-0.43144,0.42952584671937966,0.4356,1.4129402906704869,-0.19222,0.6799413960040968,-0.7300000000000001,2.304817270414295,1
1.03538,1.4653664616743485,-0.17055999999999996,0.7512421799925775,-0.20506000000000002,0.28907551435567835,0.5002799999999998,1.2548319995122852,0.1918,0.6491455730419795,0.5348200000000001,2.0341008005996164,1
1.7842399999999998,1.8321372964382336,-0.49598,0.8728361742045296,-0.20162,0.22333440621632844,-0.14820000000000003,1.8223050952022277,1.0191,1.6637515214117762,0.5222200000000001,2.5661313015900022,1
1.23268,1.8125768168549434,0.05138000000000002,0.8430394160417413,-0.2178,0.19633136529856862,0.14382,1.4415792180799498,0.04150000000000005,0.7223405464183774,-0.45554000000000006,1.463691847008789,1
1.6754200000000001,1.7712656356402334,-0.35290000000000005,0.6737291629430924,-0.21223999999999998,0.2437669645378553,0.44872000000000006,1.3327536970498337,-0.89692,1.5538272642092494,-0.6798400000000001,2.0847673570449055,1
0.9918600000000002,1.7718296836885874,-0.36419999999999997,0.7392789257107225,-0.21178,0.4092100890740599,0.26782000000000006,0.8115624325952994,-0.3843,0.43867613908212516,0.20726,1.9083853654333027,1
0.5629,0.45466966030295003,0.12464999999999998,0.9317546055695136,-0.5599,0.56978664428012,-0.5043500000000001,1.0081221379376608,1.0563,0.9377650132095994,-0.47875,2.533492886313281,1
1.5047599999999999,1.4857886131613742,-0.50988,0.7473082108474388,-0.23148,0.3816623533962971,0.59832,1.2722351755866523,-0.60436,1.4606538888456773,-0.74144,2.091550748368301,1
0.7260199999999999,1.3347007031540816,-0.33074,0.5170570645489723,-0.11402000000000001,0.47687843000077074,0.04522000000000001,1.216511977746212,0.009960000000000024,1.066394133517247,0.14139999999999997,2.3611323205191193,1
1.26828,1.270585232087954,-0.41244,0.790915079512333,-0.35140000000000005,0.3687483016910044,-0.2911,1.1709910268657058,0.52612,1.5261722664889439,0.11528000000000001,1.9902756987412575,1
0.6786000000000001,0.8052747202042294,-0.1568,0.6826069659767618,-0.22146,0.32183726167117443,0.02078000000000002,0.9161073392348738,0.14577999999999997,1.1690149857893182,-0.5882799999999999,2.3831367285575538,1
0.75768,0.5518461261982365,-0.38170000000000004,0.6355414541947676,-0.23811999999999997,0.22070641585599635,0.39244,1.5510577642370384,0.001639999999999997,1.1345776870712734,-0.28552000000000005,2.1475172204198967,1
0.54306,0.5840732685203116,-0.47026,0.5752496266839293,-0.14104,0.3078675738040627,-0.22547999999999999,1.8301476544257294,0.20226000000000002,1.08530050124378,0.79366,2.2749778741781204,1
0.98858,0.8739466642764878,-0.10446000000000003,0.7264738522479663,-0.30598000000000003,0.12470552112877761,-0.15402000000000005,1.396087739721254,0.6994,1.265090913729128,0.48912000000000005,2.0154022717561872,1
1.7225000000000001,1.4041588460711987,-0.31632,0.8892257851637008,-0.50456,0.27495991162349465,0.41802,1.0907914727389465,0.36041999999999996,1.0375031238507189,0.05812000000000004,2.0387499569589207,1
0.9892,1.1743701269191071,-0.25278,0.8192987654085658,-0.4549200000000001,0.38268508201914536,0.3693000000000001,1.7743119948306723,-0.4837599999999999,2.6905204158303646,-0.32376,2.6735069502434436,1
-0.17512,0.34092096151454226,-0.14314,0.38084134229361183,-1.04342,0.4989536371247333,-0.06884000000000001,0.40968991688837053,-0.35048,1.990825935886912,0.54104,1.3463365080840672,1
0.437825,0.504693236035515,-0.172075,0.26995603808768565,-0.5038,0.6028339074736921,-0.984575,1.2222012119532528,2.1778750000000002,2.64895260102932,0.9006750000000001,1.695755952124794,1
0.46108000000000005,0.5994778869983446,-0.42844,0.60419320006104,-0.08108,0.24693882238319675,0.09978,1.218810841353161,-0.10796000000000001,1.0383094086061244,0.48362,2.6480856834702307,1
0.65762,0.42125396971423307,-0.219,0.6723591190725385,-0.25739999999999996,0.2443720626421932,-0.18006,1.3176712291007953,0.643,1.292719087814518,0.2852599999999999,2.40836227715018,1
0.8921199999999999,0.6148757736323655,-0.23900000000000002,0.6481621826364139,-0.28900000000000003,0.1547759509743035,0.37308,1.321217384460256,0.38502000000000003,0.5847442919772711,-0.48040000000000005,2.955813313624526,1
0.7179800000000001,0.37346749122246237,-0.39993999999999996,0.6591365890314389,-0.2731,0.12660219192415273,0.52164,1.39821213805345,0.19371999999999998,0.9761539950233262,0.57596,2.626303463615734,1
1.28572,1.0229865184839926,-0.51206,0.9207866870236558,-0.43260000000000004,0.3410123604797926,-0.43328000000000005,2.0141077334641264,0.8083600000000001,1.3052363073405522,0.95688,1.9089279732352396,1
1.01768,1.4638874878213832,-0.11483999999999998,0.946756667787452,-0.27243999999999996,0.37852227543435274,0.3561399999999999,1.4738598586704232,-0.13063999999999998,1.1464446750715884,-0.14099999999999996,1.86077970485493,1
1.88748,1.9344927441063202,-0.40869999999999995,0.7598057416208436,-0.1065,0.4566644501162752,1.26166,1.470224745744677,-0.52552,1.5201124866272233,-0.8491,2.4745410574488353,1
0.7223599999999999,1.4188703633524804,-0.40202,0.7126566648814842,-0.1885,0.4441078078575066,0.29628,1.2251661630162662,-0.31584,1.3847746127077865,0.47841999999999996,2.584174892881672,1
0.9816600000000001,0.9740022294635675,-0.41154,0.6124333008581424,-0.29508,0.4519962743209284,-0.23104,0.9795265734016613,1.09128,1.1028720492423407,0.11419999999999994,2.016372864824361,1
0.8834,0.22680788125636198,-0.23554,0.7956165678264876,-0.19338,0.13699982481740625,0.16058,1.2095530091732234,-0.029179999999999984,1.3322599322204358,-0.78952,3.1444625211631956,1
0.6175333333333333,0.18712694443434205,-0.5115333333333333,0.7682472410190181,-0.21703333333333333,0.27360185184558483,-0.5234333333333333,1.6575132347385144,0.7431666666666666,1.0238437641228926,1.4155,2.4277252871772785,1
1.21268,2.0399602402988153,-0.58148,0.9713758886239663,-0.42138,0.6674965895043958,0.48333999999999994,0.8238270983646994,-0.09248000000000003,1.773012362337048,0.4023200000000001,2.0701254085199765,1
1.5890799999999998,1.985533485489479,-0.73514,1.0153504631406831,-0.63134,0.7030121961957702,0.34024000000000004,0.9416202222764761,0.9199200000000001,0.9966221636106634,1.15336,2.452608525223706,1
0.9014000000000001,1.4283391806570316,0.004739999999999989,0.7625663794057538,-0.3182,0.46055446474874173,0.11596000000000002,1.0550843511302783,-0.41618000000000005,0.8858451060992549,-0.5133800000000001,1.6155542940427599,1
1.4779399999999998,1.4638471173589132,-0.6797799999999999,0.86815911099291,-0.362,0.47801183039753314,0.61372,1.2582102991948525,-0.58238,2.262495825852503,-0.45866000000000007,1.8179307984629116,1
0.9404600000000001,1.6411480167858108,-0.43984000000000006,0.7111154392923839,-0.10455999999999999,0.4625410987144818,0.17626000000000003,1.081758766084195,-0.51274,1.5951679309715325,0.08040000000000007,2.2092661847319346,1
0.74654,0.711401010682442,-0.47012,0.7370459938158541,-1.04056,0.6443103274044271,-0.18662,0.763507542202433,0.44214000000000003,2.1721641841720896,0.3503799999999999,2.580191106681829,1
0.8620000000000001,0.9874953923943139,-0.04292000000000003,0.9919141454783272,-0.40462,0.49033384749576486,0.16584,0.8524693589801337,0.26244,0.9429776524393354,-0.86606,2.5750107141524676,1
0.80044,0.8958015226600143,-0.36391999999999997,0.4399959624814755,-0.5709,0.6125529364879414,0.244,0.9209891041700764,1.02902,1.8061291612174364,-0.53194,2.688112857191826,1
0.5014000000000001,0.61838900782598,-0.49894,0.580136753705538,-0.314,0.5354305136990233,0.05668000000000004,1.1888128246279983,0.5829000000000001,1.651996766037997,0.47462,3.007839634521761,1
0.66646,0.23622398904429673,-0.16716,0.5553789679129018,-0.46758000000000005,0.18889394378857147,-0.16548000000000002,0.9313529577984923,1.1177199999999998,1.8621481471676735,0.21796000000000001,2.488560562453725,1
0.7519666666666667,0.7345284360277233,-0.4605333333333334,0.8672955801417032,-0.48293333333333327,0.4961086003420353,0.6445,0.579112087596175,-0.18936666666666668,0.11912096093187519,0.20969999999999991,3.7645,1
0.6965,0.3981011178080263,0.513,0.35072496346852755,-0.39295,0.23369879118215398,-1.24285,0.4594072757369,2.4604,0.28977235893024694,1.11145,0.4998537836207705,1
0.7788,0.14158169020039285,-0.11547999999999999,0.6619945936335131,-0.29824,0.06187768580029476,0.28502,1.1578179485566806,0.26044,1.193237157064764,-0.6207199999999999,3.047264543324061,1
0.6565,0.42529025970506307,-0.2346,0.7589191261260978,-0.28624,0.18851939688000277,0.40274,1.181068547121631,0.21790000000000004,1.3152174668091967,-0.05223999999999995,2.7696440092546193,1
1.47598,1.2796945190161595,-0.19278000000000003,0.8368393346395712,-0.45228,0.279693344575805,-0.04343999999999999,1.3976780863274634,1.2691199999999998,1.17756541941414,1.48076,3.260153960781607,1
1.0855000000000001,1.5138977293727605,0.08347999999999997,0.8885253018344498,-0.4936,0.5425034423853917,0.015179999999999971,1.1165360034499558,0.55706,0.8729849958618991,0.27342,2.0360765683048365,1
1.57034,1.5789448844085725,-0.37268,0.6411103274788201,-0.68242,0.6343989927482546,0.24057999999999996,0.9255236960769833,-0.47032000000000007,1.8247821313789765,-0.69696,2.538165111453548,1
0.8541599999999999,1.3639388065452203,-0.44602,0.7724043319402087,-0.52572,0.9862635028226484,0.37998,0.8524961976454792,-0.06942000000000004,0.8904793271042287,0.23756,2.341153559252361,1
1.33416,1.3780609522078477,-0.39718,0.6142233364176258,-0.48768,0.5566710446933629,-0.25262,1.0154626812443674,0.62104,1.592986775839649,-0.17056000000000004,2.3613725612448366,1
0.8845600000000001,1.1402873422957918,-0.1287,0.7177086560715288,-0.28544,0.47574526061748634,0.20168,0.8507640489583466,-0.44702000000000003,1.2616874462401535,-0.5701,2.2721668699723616,1
0.9702000000000002,1.100293579005167,-0.45120000000000005,0.59420339531174,-0.48186,0.49881283363602424,0.23562000000000002,0.6032060817001101,0.15686,0.5106894388960869,-0.6744800000000001,2.728592075045297,1
0.30408,0.39515910340013677,-0.46914,0.5592297139816517,-0.4587800000000001,0.7468535847138983,-0.25860000000000005,0.5949271257893692,0.9085599999999999,1.9376613114783503,0.28658,2.699905061664206,1
0.45515,0.5401588701484037,0.14769999999999997,0.8338203163751768,-0.6535000000000001,0.7711706555620488,-0.6052,0.43076945109884474,1.56545,1.4811765745514611,-0.51975,2.6497412411403496,1
0.9268000000000001,0.756511787746893,-0.42943999999999993,0.8539189908884799,-0.61726,0.4286800240272458,0.39708000000000004,0.9750014625630056,0.03924000000000003,1.0015237705616378,1.1277000000000001,2.8813742077349134,1
0.73102,0.2970000791245686,-0.02691999999999999,0.6899595328713127,-0.45494,0.2503196915945687,-0.028139999999999964,1.1344386312181016,0.8574000000000002,0.9817143041638948,0.49198,3.056476822585115,1
0.74382,0.2877793112786255,-0.14192,0.7105980347566407,-0.38388,0.15171249783719207,0.18292000000000003,1.1753892959356063,0.4022,0.7988198107207908,-0.6493,3.1921623126025405,1
0.9215,0.4895738555110965,-0.5138,0.48272347156524303,-0.25596,0.13234458054639034,0.43062000000000006,1.2221322277069695,0.06880000000000001,1.2103726636866845,-0.24794000000000005,2.774288691358562,1
0.72238,0.42664562812713774,-0.40449999999999997,0.5200723603499805,-0.35996,0.3060482282255527,-0.18117999999999998,1.2472949639119049,0.77238,1.1250114341641153,0.5366399999999999,2.9717008510279093,1
0.7999,0.6011511415609223,-0.28418,0.4749935652195722,-0.72462,0.6800234312139545,-0.1844,0.7941744518681018,0.7835799999999999,0.9342109114113365,0.13549999999999995,2.850332054340336,1
0.7792199999999999,0.9701282038988455,-0.15775999999999998,0.7036936925964308,-0.579,0.704582138575766,-0.16594000000000003,0.9924048634503965,0.74212,0.8974648834355582,-0.80284,2.6136973453328523,1
1.54478,1.5574997020866488,-0.29568000000000005,0.4871325404856465,-0.44288,0.5363260733919246,0.445,1.312298607406104,0.26042,1.0533860223109097,-0.73428,2.6505015585733958,1
0.8291999999999999,1.3279628891652056,-0.35476,0.5992204460797378,-0.35864,0.5301641283602655,0.36672,1.0496461151264267,0.14784000000000003,0.5450082136995735,0.06487999999999991,2.174296930504203,1
1.3801999999999999,1.352367442672294,-0.29808,0.6864942767423484,-0.57584,0.5521102951403822,0.26755999999999996,0.9994357998390893,0.10850000000000004,1.1392622766509914,0.7860600000000001,2.7346452179396143,1
0.7394666666666666,0.7825240848263607,0.10213333333333331,0.6719304825153666,-0.3533,0.3312406828878361,0.4281,0.957741734498398,0.7890666666666668,0.45896688696825755,-0.8628,1.6601216130151428,1
1.2606,0.9404959569291087,-0.44772,0.5144207830171716,-0.60092,0.4262081087919375,-0.03803999999999996,0.9111230696234182,0.40796,1.1435494995845172,1.32766,3.040720866505178,1
0.94032,0.265532073392274,-0.07361999999999999,0.6095369529405088,-0.4131,0.198725967100427,0.47194,1.1087717700230286,-0.10576000000000003,1.5832925512993483,-0.11445999999999987,2.9351575022475367,1
0.6894,0.27640369932401415,-0.32386,0.5990968561092606,-0.33168000000000003,0.16140039343198642,0.37299999999999994,0.8148162860424428,0.24226,0.843206062003826,-0.08056,2.835103093010905,1
0.5468200000000001,0.36352530448374565,-0.31946,0.5412818609560088,-0.17558,0.3106024822824183,0.24943999999999997,1.0511952425691433,0.053120000000000014,0.6775638582451105,0.82304,2.7953023428602495,1
0.68096,0.26780123786121673,-0.20850000000000005,0.6244796433831931,-0.38456,0.28431177077286124,-0.07814000000000006,1.1737451716620606,0.13323999999999997,0.7915245624742165,0.14599999999999996,2.5197820590281217,1
0.65378,0.2446540761973934,-0.26295999999999997,0.6205475187284211,-0.37724,0.12307624872411409,0.24386000000000002,0.7877113830585413,0.2839,0.8732964645525597,-0.59734,2.98776963937985,1
0.93872,0.6571002906710665,-0.3484,0.5964902220489452,-0.4086,0.3862485080877336,0.30708,1.0120507655251292,-0.04710000000000005,1.5706197868994267,-0.5647800000000001,2.9696473691332446,1
0.73038,0.8535314387882851,-0.31454,0.5694079363689972,-0.40664,0.5788683339067702,0.55106,0.9873205168535697,0.0067800000000000195,0.7570569179394638,-0.0968,3.0723065935873004,1
0.97414,0.7496321951463931,-0.31406,0.7010811992914944,-0.57782,0.5107645563270811,0.52912,0.5929397035112424,0.51786,1.7150242514320315,0.39609999999999984,2.909292717311202,1
0.75084,0.45425974177776307,-0.25428,0.45513079658489386,-0.54408,0.4943000121383774,0.32092,0.5731489745258208,0.49036,1.2126485344072289,-0.6558200000000001,2.535347887766095,1
1.1887,1.4139477123760036,-0.401775,0.6428839831830727,-0.5109,0.625546273268413,0.49824999999999997,0.9447282237059854,-0.433025,0.894867242947243,-0.43925,2.7105676041498517,1
0.5763,0.8658330362527562,-0.03419999999999998,0.7126192157573824,-0.307875,0.3718705543151631,-0.09252499999999997,0.9907108470689113,-0.4293,1.196697408147384,-1.0837,2.24789908581324,1
0.93442,0.6715160809690264,-0.34334000000000003,0.6183053800509907,-0.6013200000000001,0.40474830079939805,0.27252,0.7515009061870783,0.08342000000000001,0.47663306851287607,0.19007999999999994,3.2170334591048317,1
0.90622,0.5545088610653576,-0.4241,0.5191438577119062,-0.5222800000000001,0.4953400417894762,0.20274,0.7131958973521931,0.12195999999999999,1.3825564212718409,0.46508000000000005,3.337372546929695,1
1.0314999999999999,0.8123885185057701,-0.3807,0.5930219220231239,-0.56818,0.5198041236850666,0.24458000000000002,0.35534384334050306,0.7971,0.7072370748200352,0.32371999999999995,3.7824193668867547,1
0.9589400000000001,0.9974009790450379,-0.34669999999999995,0.5566852476938832,-0.45848000000000005,0.5063304918726503,0.1416,0.5714045502093942,0.39248,1.144571435953213,0.00627999999999993,4.1765456279083075,1
0.9890799999999998,0.9273874578621386,-0.39702000000000004,0.4728368502982821,-0.56978,0.5526734406500822,-0.09984000000000001,0.5717071435621562,0.32952,0.4446016666635428,-0.07212000000000014,3.5230575885159756,1
0.9648,0.3333370366460949,-0.28063999999999995,0.6253172618759216,-0.4789,0.4427310357316279,-0.06259999999999999,0.8319177934147098,0.07659999999999997,0.6434930263802399,0.5544399999999999,3.3089606537400837,1
0.9761599999999999,0.9252690030472219,-0.32195999999999997,0.723858841902204,-0.4202,0.34974096128420534,0.33002000000000004,1.446841372438596,0.10842,1.091179465990815,-0.40001999999999993,3.7571199018663215,1
0.87418,0.5429262076930897,-0.31244,0.5026895692174247,-0.55082,0.5436182594431501,0.23786000000000002,0.7793723070522841,0.26608,0.8913102248936675,-0.49361999999999995,3.1357587689425346,1
0.83454,0.6069311435410116,-0.2505,0.39901386567386354,-0.52886,0.3569551344356879,-0.11774,0.426636581882051,0.34612000000000004,0.6462700573289776,-0.09611999999999996,2.4961836524983494,1
1.392,0.9096715121405089,-0.24962,0.46060208097662786,-0.8310400000000001,0.5217525495864875,0.74448,0.7344594148079252,0.05540000000000002,1.194748613725917,-0.82818,3.0729625497229867,1
0.79762,0.39332401655632465,-0.28504,0.48990083486354663,-0.48566000000000004,0.44981887799424336,0.25812,0.5201293079610108,0.0595,0.5561722395085896,-0.49076000000000003,3.2971638438209285,1
1.09832,0.9073292935864025,-0.32514000000000004,0.5576554249713707,-0.6589400000000001,0.47221876603963975,-0.20298,0.9623589751231086,-0.22118,1.437258272545335,-0.19347999999999993,3.0550722196046367,1
1.17248,0.8710725698815226,-0.4328,0.5334371237549933,-0.49056,0.4292370883323108,0.5342399999999999,0.8500964492338501,0.60588,0.9726151792975473,-0.5105999999999999,2.8871121445139605,1
0.82684,0.2909153107005542,-0.33528,0.40917096915592627,-0.3318,0.24537122895726793,-0.34294,0.8385724822577951,-0.09297999999999995,0.9819655146694308,0.22392000000000004,3.108835470397236,1
1.06642,0.8558106344279673,-0.3043,0.5661315527331082,-0.5023,0.3759611881564372,0.040139999999999995,1.2729535372510656,-0.5374399999999999,1.2616601317312044,0.7586200000000001,2.608719331779484,1
1.11238,0.83821185090644,-0.43034,0.843533794817967,-0.5031399999999999,0.3518436627253644,-0.20898000000000003,1.3787063998545885,0.24037999999999998,1.2321810366175905,1.4423199999999998,3.537500498515866,1
0.75282,0.15280015379573414,-0.17735999999999996,0.6047588387117628,-0.52654,0.2953486888408344,-0.12542,0.9815153040070236,1.4307599999999998,1.5958523687985677,0.06917999999999987,3.048357852516663,1
0.55126,0.4141292829540071,-0.055340000000000014,0.6155450495292769,-0.37648000000000004,0.39536809684141183,0.15306000000000003,0.6563831563957138,0.19598000000000004,1.7217532959166941,-0.6220000000000001,2.5450094243440438,1
1.36164,1.3207419308858186,-0.09655999999999999,0.5520206092167212,-0.6356400000000001,0.5660765654926903,0.41769999999999996,0.7816525538882348,-0.09883999999999993,1.8985731255340152,-0.6469,2.581752008811071,1
1.0612400000000002,1.1066680093867356,-0.09259999999999999,0.8233869078385931,-0.56396,0.6988370647010647,0.24356,0.8589879876924938,0.10878000000000002,1.1791595341598184,0.04281999999999993,3.059559642661015,1
1.7093999999999998,1.0571001277078722,0.21953333333333336,0.9526079063987101,-0.7534666666666667,0.45839385176214276,-0.32726666666666665,1.43240118798238,0.9632999999999999,0.7936791354193455,0.5261666666666668,3.422510847803603,1
0.8370200000000001,1.1359300823554237,-0.11551999999999998,0.6997853756688547,-0.55742,0.7748414657205691,0.6517,0.9243850144826019,-0.6315,1.6269004148994493,0.08030000000000008,2.0060741723575424,1
0.66716,0.35901815831514705,-0.22796000000000002,0.7451793696822263,-0.36592,0.20241046662660506,0.6283,1.1970693964845982,0.8613799999999999,1.4826645075673726,1.44102,3.6088081290088008,1
0.80784,0.3171727258135542,-0.12645999999999996,0.7051276217820431,-0.51652,0.051636343790008976,-0.18236,0.97712121458906,0.4263,1.4892326144696133,0.17283999999999997,2.8337303237958267,1
0.7954600000000001,0.2967181709973287,-0.06915999999999997,0.5867197440004895,-0.53816,0.17361576253324462,0.47881999999999997,0.5569937136090496,-0.09616000000000002,1.3989739947547275,-0.66244,2.9240605000580957,1
0.60008,0.20051423141512922,-0.28765999999999997,0.6712610505608082,-0.31462,0.12237839678636094,0.13000000000000006,1.0967008867508041,0.64258,0.8570615946359981,-0.22882000000000002,2.5627033328108815,1
0.36744,0.27439931304578735,-0.37751999999999997,0.467240486259485,-0.31092,0.4372040621952179,-0.13048,1.0570867760028029,0.85878,1.8677112536470941,0.52904,2.9130019435283594,1
0.65474,0.24961973679979713,-0.17344,0.6319327756969091,-0.5203599999999999,0.3954209693478585,-0.35754,0.7489223878346808,1.02812,2.3720062145787058,-0.22118000000000002,2.8528025548572407,1
0.58606,0.24112773171080926,-0.032599999999999955,0.6483004203299578,-0.37126000000000003,0.10522403717782355,0.27514,0.9934312120121856,0.19736000000000004,1.2364257834581096,-0.26372,2.881522283793759,1
0.5980000000000001,0.23502281804114256,-0.19368000000000002,0.5441813778511719,-0.475,0.17587268122138813,0.32754,1.0240117885063629,0.79248,1.850232483230148,-0.21636000000000005,2.2787922432727385,1
0.75276,0.25342928599512726,-0.3283,0.7082079955775704,-0.41190000000000004,0.184818532620514,0.07302,0.9690865864307482,0.3995000000000001,1.198211744642824,0.71252,3.082655510594721,1
0.6707749999999999,0.36570297031880944,-0.22820000000000001,0.6815936717233614,-0.45955,0.20692240896851488,-0.007024999999999976,0.8525130316697023,0.7207,1.6154715493213325,0.11497500000000005,2.8715515775447953,1
0.11009999999999998,0.8765295659588443,-0.0406,0.7335525748029245,-0.041950000000000015,0.7483311065297232,0.26915,1.9673831972953313,1.3713,3.4124973260062785,0.99325,0.38303974336875274,1
0.8716200000000001,1.1093154069064397,-0.525,0.7427412133441903,-0.77496,0.7707533412188363,-0.06690000000000002,0.9280046309151695,0.53766,1.0821264542556939,-0.19220000000000004,2.051155694968083,1
0.74444,1.205400772772276,-0.16902,0.8789174602885074,-0.40327999999999997,0.553451219169314,-0.16049999999999998,0.8945389818224805,0.51002,1.045664036390274,-0.54908,1.8993312999579615,1
0.6972799999999999,0.7903580119161189,-0.28118,0.5491906608819928,-0.46227999999999997,0.38569561444226974,0.29389999999999994,0.94450779245065,0.11124,0.039888945837161446,-0.62842,1.9400162607565947,1
0.4088,0.497222611110959,-0.24884,0.459054989080829,-0.28532,0.4248362884688642,0.04204000000000003,0.748160526224152,0.37776,1.1185699276308119,0.61952,2.335812796865365,1
0.65298,0.5006233184740799,-0.26899999999999996,0.6769738104240075,-0.70526,0.5017155249740634,-0.056540000000000014,1.0666998045373404,1.4862199999999999,1.5748995212393708,0.30876000000000003,2.6731232768056175,1
0.5203599999999999,0.32231022788611596,-0.20561999999999997,0.622102738299712,-0.48162000000000005,0.34619003018573485,0.04089999999999998,0.6893767910221521,0.25698,1.0323915328013884,-0.7555000000000001,2.935259932271757,1
0.8344400000000001,0.45231497101024637,-0.37648000000000004,0.5430710607277835,-0.52816,0.4112238478006839,0.16795999999999997,1.2198042273250245,0.48035999999999995,1.1374461780673404,-0.29794,2.527406336147791,1
0.58918,0.45807267654816525,-0.23934000000000005,0.7815305643415362,-0.25908,0.23065046498977623,-0.03593999999999999,1.314790782976516,0.9193999999999999,1.4169650701411096,0.9291799999999999,2.8123083858282683,1
0.69124,0.3209016095316444,0.023499999999999986,0.7063443388319892,-0.48807999999999996,0.11525292621014012,0.11466000000000003,1.4003434089536753,0.46698000000000006,1.5370904859506482,0.42234,2.2565391228604925,1
0.8264400000000001,0.5209305692700323,0.032880000000000006,0.5727197805209805,-0.49528,0.3529869360188844,0.26526,1.4857488559645604,0.9353999999999999,2.0807252930168367,0.11639999999999998,3.428945267133904,1
0.38155,0.051830927060973954,-0.6083000000000001,0.556068772725101,-0.2424,0.136613030125241,0.8474,0.010040916292848968,0.3799,0.7346839456528229,2.0260499999999997,3.828205402665849,1
0.6469,0.9274390626882179,-0.22074,0.7227839428210895,-0.48026,0.7014892429681299,0.016459999999999992,0.7854258641017623,0.05810000000000002,1.133142382933407,-0.5246999999999999,2.531637422697018,1
0.9377600000000001,0.995885537097512,-0.50698,0.5686065177255709,-0.52528,0.6644027897292425,0.01429999999999998,0.7791497320797846,-0.08646000000000001,0.9267591990371609,-1.0757400000000001,2.3794330307869562,1
0.59284,0.5986976682767355,-0.33864,0.6178812450625121,-0.18968000000000002,0.3634869626272722,0.11606000000000001,0.7491540115356788,0.50996,0.7942275637372452,0.8965799999999999,2.8555493152806872,1
0.9741799999999999,0.6560335944141885,-0.34368,0.49103891597306215,-0.5236,0.4882286810501816,-0.11572,1.0364434654142984,0.86792,1.2439276855991268,0.15809999999999996,3.057940604393748,1
0.5581400000000001,0.5921945018319573,-0.10696000000000001,0.6258207514935886,-0.4079,0.47194791026129146,0.08126000000000001,0.9088847440682455,0.61888,1.4071847611454582,-0.8900399999999999,2.7964370863654344,1
0.72804,0.4576688409756557,-0.40596,0.6576667720053978,-0.44539999999999996,0.3346941962448707,0.14780000000000001,1.2181370756199812,0.6532,1.2355387974483036,-0.5366199999999999,2.477078420639928,1
0.5659,0.4643279606054324,-0.44306,0.5305554193484409,-0.31294,0.4511555086663578,0.24188,1.015614076310485,0.35541999999999996,1.1628600096314259,0.5636199999999999,2.4706874846892313,1
0.6597999999999999,0.2889871623446273,-0.16476,0.6297686662576981,-0.40882000000000007,0.276752212276614,-0.46921999999999997,0.9828244029326907,0.79076,1.3242970750552914,-0.14188000000000006,3.055701361717143,1
0.8233599999999999,0.3518370475092127,-0.21459999999999999,0.7630135123312037,-0.5447,0.36310843421765904,0.16797999999999996,1.0430143393069915,0.36920000000000003,1.730675684523244,-0.8118400000000001,3.3961869181480577,1
0.60536,0.4646395732177792,-0.37756,0.5180598112187433,-0.26954,0.37992520711318956,0.6508200000000001,1.2732606025476483,-0.47224000000000005,1.7466560087779162,-0.52378,2.8434217611884454,1
0.9749333333333334,0.6729710568318176,0.0531,1.0000186848254387,-0.5133666666666666,0.22429534844337135,-0.2507,1.6964296890823385,1.0107333333333333,1.099955018777283,0.37939999999999996,3.921391951845671,1
0.6573249999999999,0.29280063040688054,-0.349525,0.3790771986020789,-0.38215,0.31387336618451717,0.13255,1.1949069489573934,0.8142500000000001,1.1492847935419084,0.760975,2.390571572344154,1
0.9867799999999999,1.1297322302209494,-0.15200000000000005,0.7479715302068656,-0.60578,0.6367986785476237,-0.11688000000000001,0.8113789016236496,0.10040000000000002,1.1124565362296182,0.04961999999999995,3.010050508214106,1
1.10818,0.671632181331419,-0.22486,0.6096996703295812,-0.5719000000000001,0.47096419715303206,-0.04525999999999999,0.841048956957917,0.58744,0.7943131013649466,-0.20014000000000004,3.732076736617295,1
1.0438800000000001,0.7465248301295813,-0.43654000000000004,0.5408823559703164,-0.53692,0.4074346536562642,-0.21827999999999997,0.6478041386098116,0.29050000000000004,0.4992616498390398,-0.45367999999999997,3.1699350485459474,1
0.8892200000000001,1.073144520556295,-0.2969,0.4700261269333865,-0.4316,0.6456519457106902,0.10870000000000002,0.9884536787325949,0.30804,0.5557155144496148,0.18425999999999998,2.815817065791029,1
0.75532,0.5569373501570889,-0.40474,0.6015120846666341,-0.4545,0.3347168953010887,-0.05205999999999998,1.0184491239134137,0.07789999999999997,0.6855553624617051,1.31906,2.970832612753535,1
1.03184,0.8426520414738221,-0.21864,0.4450862085034763,-0.6281399999999999,0.513451675428175,0.02034000000000002,1.074517737405949,0.00033999999999996257,1.5997520082812835,0.30098,3.0870049582078747,1
0.8137800000000001,0.6258003371683335,-0.15991999999999998,0.5073161607912762,-0.54682,0.4052691537731437,0.04935999999999998,0.8551962248513495,1.10798,0.5904680744968351,0.43826,3.0669714626973628,1
0.79556,0.7952562467532085,-0.27008,0.6755193831415942,-0.5854,0.5498449463257801,-0.04407999999999997,0.8732197071756913,-0.22627999999999998,1.459308631510141,-0.39042,2.423509891046455,1
0.9381600000000001,0.7285587402536602,-0.18568,0.44519355565865953,-0.64808,0.49748998683390605,0.4021199999999999,0.7540824006698472,-0.15123999999999999,0.6434762489789347,0.06513999999999998,3.1280924207893857,1
0.8318,0.7164281017659762,-0.37738,0.5489572633639161,-0.7182000000000001,0.5840827766678282,-0.051160000000000004,0.5817200641201917,0.20850000000000007,1.4761734281580874,-0.59714,2.4874173610393573,1
0.593475,0.3022650313328795,-0.05945,0.542894652150243,-0.40745,0.3139330554964439,0.398225,1.1230663927390936,1.170275,1.8338931564206968,-0.38037499999999996,1.7791345131364669,1
0.3327,0.36460817324903727,-0.35697999999999996,0.5411925877171637,-0.34965999999999997,0.5159380854327387,-0.25233999999999995,0.7177320133587466,1.22756,1.861427812997324,0.11153999999999993,2.9443283560092275,1
0.74904,0.7601596957218923,-0.43084,0.6843613650696538,-0.74058,0.7865589342191722,-0.34386,0.8493041993302517,0.508,1.7696753657097677,-0.00129999999999999,2.2156009083316426,1
0.5781799999999999,1.038036623631363,-0.08188,0.6678730133790405,-0.44736000000000004,0.6396099342568093,-0.018440000000000012,0.638739025737429,0.06771999999999999,0.5025780606035246,-0.6443,2.005039059469915,1
1.3446799999999999,1.542145189986987,-0.32239999999999996,0.6404702061766808,-0.79912,0.7808505279501321,0.21549999999999997,0.8055687711176496,0.009920000000000002,0.4513020518455461,-0.86808,2.2492434699249433,1
1.03742,1.800387071437695,-0.4404199999999999,0.7852713142602371,-0.5963200000000001,0.8699434648297555,0.17786,0.8970752019758432,-0.52582,0.7786670385986554,0.0006199999999999761,1.8981014638316887,1
1.42528,1.6280412024884383,-0.5393399999999999,0.7519317974391029,-0.8275600000000001,0.7883885831238299,-0.14695999999999998,0.9822417792987631,0.5662,0.933028496349388,-0.060759999999999946,1.8514923475402214,1
0.78074,1.3091112741092714,-0.17996,0.8025439072100666,-0.49196000000000006,0.6897318993638035,0.22342000000000004,1.0646727206047875,-0.49484000000000006,1.0456650720952672,-0.10787999999999993,1.4823845071370654,1
1.6800800000000002,1.5800659913433996,-0.56294,0.7844965697821756,-0.8819800000000001,0.755186792787056,0.07376,1.148539565274092,-0.65742,1.4210296925117365,-0.8439399999999999,1.9747080158848802,1
0.5106200000000001,1.3728506553882691,-0.34114,0.5136813486978089,-0.31958000000000003,0.6383089706403945,0.25548000000000004,1.096795202852383,0.35497999999999996,1.6732633406012336,-0.20262000000000002,1.8031785926524304,1
1.2576,1.3530894334817636,-0.37804000000000004,0.6577198514565301,-0.6381600000000001,0.5764906486665677,-0.14934000000000003,0.9379531933950649,-0.08820000000000001,0.9703002756878923,0.19324000000000005,1.7849307263868814,1
0.8027333333333333,1.1057673821077076,0.4433,0.4093733259507757,-0.6495333333333333,0.6800430966735368,-0.28409999999999996,0.919357367947851,-0.03263333333333337,1.1842636629287133,-0.7083666666666667,1.4281564246724983,1
0.68778,0.5762891782777116,-0.18587999999999996,0.5991438116178786,-0.48179999999999995,0.35220213656365,0.6213,1.3442231808743665,-0.30714,0.9602716948864004,0.5109400000000001,2.11916537769,1
1.2925200000000001,0.8938284326424171,-0.35500000000000004,0.8114686654455612,-0.78502,0.5109367739750194,0.20023999999999997,1.279029074337249,-0.6607200000000001,1.2613372851858458,1.03272,1.9849077200212608,1
0.59348,0.8103081833475458,-0.054379999999999984,0.6889035759814286,-0.5608,0.6883161010756613,0.12962,1.1713003572952583,-0.13797999999999994,1.5462182371838717,0.5391600000000001,2.1125728905767964,1
1.67944,1.1990752720325775,-0.30276000000000003,0.6282635657110796,-0.95846,0.6745483696518731,0.46616,1.2201411528999422,-1.13672,1.472372360172521,-0.23599999999999993,1.8930547363982901,1
0.79214,1.1226087332637316,-0.42742,0.6902368557241781,-0.58906,0.7694631232229391,0.3538,1.0451242390261553,-0.6753,1.2507385638093997,0.14233999999999994,1.5373864683286371,1
1.1369,0.9879191945700821,-0.5094000000000001,0.7209469710041093,-1.06426,0.7822915332534285,0.027479999999999994,1.0220201695661393,-0.4683400000000001,0.9988844017202391,0.4952599999999999,2.5238757552621323,1
0.74558,1.194601503431165,-0.15639999999999998,0.7835452475766795,-0.71326,0.8144465716055289,0.14708000000000004,1.02690981931229,-0.06958,1.3879164193134976,-0.10452000000000002,1.6125230345641577,1
1.2959600000000002,1.3732088034963947,-0.28432,0.6546556858379832,-0.9482199999999998,0.9567654268419192,0.18888,1.0873889446743514,-0.10644000000000005,1.8893278680525514,-0.8222999999999999,1.585111828862557,1
0.5405599999999999,1.1697680744489483,-0.23037999999999997,0.4226823712907838,-0.49610000000000004,0.9232683656445725,0.31406,1.1085749582233941,-0.06685999999999999,0.8190855071358545,0.08707999999999996,1.8692457080330558,1
0.9756400000000001,1.1196055390180955,-0.5135799999999999,0.7688584245490193,-1.00182,0.91963579584529,0.04563999999999997,0.8125501849116767,-0.14976000000000003,0.8995788253399476,0.19882000000000008,2.627382173761556,1
1.39135,0.8876311424234732,-0.46485,0.9703626358222992,-1.5585,1.137310546860443,-0.03749999999999998,0.8239208214385652,-0.9008,0.5897270555095807,-3.02745,0.06639732675341657,1
0.64722,0.274449261248778,-0.1446,0.6056402232348839,-0.36846,0.11241747195164992,0.5789,0.9305328097385928,0.383,1.1102597804117738,-0.17298000000000013,3.1806741450516425,1
0.6334,1.0579885585392688,-0.34456,0.6588323140223163,-0.35300000000000004,0.5892373927374264,0.11053999999999997,0.5500547727272258,0.4035,2.346142550016942,0.36194,3.2672443691894246,1
0.60964,0.5850960929625151,-0.29992,0.5206431282558139,-0.63674,0.638004712365042,-0.023919999999999993,0.29469838309702345,0.808,1.0053777250367149,-0.07979999999999995,2.3855053039136176,1
0.8186399999999999,1.0884869351535644,-0.22476,0.5681670863399252,-0.40052000000000004,0.521068159649004,0.28504,0.923439745191856,-0.06126,1.5057328242420698,-0.9660399999999999,1.9364719654567686,1
1.0579399999999999,1.0681467867292398,-0.47476,0.7198660521235879,-0.7781399999999999,0.8107433860353102,-0.03384,0.9483627170023081,-0.37904,1.427296848241458,-0.6634399999999999,2.586983637945938,1
0.55516,1.0417000662378781,-0.29662,0.7264153130269212,-0.51912,0.9721881721148432,0.28894000000000003,0.7747261858230946,0.1965,0.608899117259994,-0.19713999999999993,1.9989775906697904,1
1.21844,1.4030412157167729,-0.5631999999999999,0.8081282788023197,-1.03932,0.9908987899881602,-0.10394,1.0309206215805364,0.19298,1.028544876026321,0.009260000000000001,2.0956795241639408,1
1.01058,1.4323382062208632,-0.18036,0.7634891079773175,-0.68128,0.8602759510761648,-0.1135,1.0704444520852074,0.33728,1.2822968326405553,-0.74354,1.9773880974659477,1
0.736,0.4589854627327536,-0.22008,0.51546670309536,-0.52288,0.28155126886590304,0.38182,0.8483941430726641,0.37016,0.8499408085272763,-0.62828,2.834041858724038,1
0.5748800000000001,0.24983908221093032,-0.36554000000000003,0.5907065201942501,-0.33648,0.34923103670779326,0.13126,0.8972449821537036,0.8426400000000001,1.6481798545668491,0.7375200000000001,2.9876171252354276,1
0.8023,0.10719738802788058,0.34465,0.15294719677065025,-0.54165,0.030759144981614844,-0.22545000000000004,1.5363309034840118,0.57125,1.5832827937547986,-1.21835,2.311037092951993,1
0.62608,0.39475732038810885,0.02799999999999999,0.5309735115803801,-0.5987,0.37002069536716453,0.16948000000000002,1.0414564786874199,0.63662,0.5391270508887492,0.55702,2.5768836036965275,1
0.69638,0.5361296876689444,-0.0314,0.676324947787674,-0.60134,0.4095936132314566,0.5413,0.7649468837769064,-0.04969999999999998,1.0420929109249328,-0.19728000000000004,2.941584310707412,1
0.6689399999999999,0.33894986797460175,-0.25736,0.4978454860697243,-0.55906,0.2249382759781003,0.53908,1.0819538469823933,0.39966,1.5358685532948448,0.09857999999999993,2.674477978409992,1
0.93312,0.3668505785738929,-0.3652,0.670940556234306,-0.69726,0.25591919232445226,0.32774000000000003,0.843935251070839,0.42556000000000005,0.5276424717552597,1.00314,3.2619350618919443,1
0.73878,0.3278029163994732,0.03857999999999999,0.6478766719060041,-0.46943999999999997,0.1421604129144257,-0.25007999999999997,1.0712229305798118,0.9764399999999999,0.9854910821514318,0.34692,2.661828782435114,1
1.12388,0.9002561896482578,-0.15447999999999998,0.7775305248027243,-0.8746600000000001,0.6329477648273987,0.6653800000000001,0.9592682534098582,-0.41991999999999996,0.8583241386562538,-0.17881999999999998,2.7094656737076406,1
0.8967599999999999,0.9742811878508175,-0.22098,0.6774566864383287,-0.65236,0.7830213426210042,0.5515199999999999,0.9611630127090826,0.26050000000000006,0.880863567756097,0.3894600000000001,2.587309317225136,1
1.29658,1.1686207926440466,-0.34414,0.7579571973403247,-0.9451599999999999,0.4670986009398872,0.3572,1.0162836439695366,-0.2857799999999999,1.9343370885137885,1.40138,2.5847599408842594,1
1.0059,1.0236364247133842,0.12069999999999999,0.7032066161520382,-0.69382,0.47997507956142893,0.15000000000000005,1.0679724692144457,0.36167999999999995,0.9078234999161455,0.43154000000000003,3.0654535533914062,1
1.50322,1.43354739789098,-0.3101,0.7688839574344103,-1.07224,0.9268493421263243,0.43738,0.7728230761306238,-0.37673999999999996,1.123303028127317,-0.1604000000000001,3.2617395719155753,1
0.7365666666666666,1.1480383022065654,-0.2375333333333333,0.9001491506041281,-0.7683,1.1092784186127485,0.6380666666666667,1.1303001784186948,-0.27413333333333334,2.101941674579324,1.7105666666666668,2.0829515244799466,1
1.55015,1.2352448360547799,0.33099999999999996,0.6768426109517633,-1.182,0.8080816295399865,-0.09720000000000001,1.135047805160646,-0.002599999999999991,0.8636602225412491,-1.16985,2.454296926820388,1
1.29372,1.0477640225737854,-0.14846000000000004,0.6919196542952079,-0.82158,0.5786401792133,0.36619999999999997,1.1346312021974365,-0.40274,1.3639142469378345,-0.02284000000000006,2.0914746826103348,1
0.89254,1.3293669500931637,-0.34112000000000003,0.8031835917148706,-0.58896,0.8075324903680346,0.44925999999999994,1.1252332771474545,-0.6352599999999999,0.9023746051391296,0.21399999999999997,1.8801498105204277,1
1.38238,1.1887681132163666,-0.43195999999999996,0.7207912929551799,-1.0828200000000001,0.8224824903911329,0.1137,0.9927373318254934,-0.07814000000000002,0.6208421160005175,1.0796,2.811049823464536,1
1.03874,0.8417962865206761,-0.006640000000000002,0.7295790176533313,-0.7156199999999999,0.5778332043072637,0.13824,0.897440097165265,-0.506,1.4646161903379329,0.7020799999999999,2.082805006955764,1
1.09006,0.8020220682749323,-0.22424,0.6351937090368576,-0.67566,0.5373977698130129,0.51888,0.754741248375892,-0.12599999999999997,0.7474274446392773,-0.2300200000000001,2.712695227444469,1
0.9220599999999999,0.8638784769862021,-0.27838,0.5863455951910954,-0.62502,0.6629009217070074,0.46696,1.0814276619358318,-0.5558799999999999,0.7679116303325533,0.32448000000000005,1.8358793634114416,1
1.09872,0.9976033791041409,-0.36744,0.7520304003163703,-0.9435800000000001,0.8495761131293652,0.22258000000000006,0.8048461821988099,-0.38702000000000003,1.004826749743457,0.6020200000000001,2.3604135266939985,1
0.65758,1.0680971196478342,-0.06443999999999998,0.6357175575678243,-0.6571,0.8229848631657815,0.016259999999999962,1.1344552913182608,0.14135999999999999,1.141428205363789,-0.06772000000000002,1.4490615055959495,1
1.23224,1.2785525577777395,-0.27084,0.5525483535402128,-0.98812,0.9395488103339815,0.09320000000000003,0.7757390250593301,-0.9196399999999999,0.8673319537524257,-0.6657599999999999,2.181083053897765,1
0.8783799999999999,1.284102385715407,-0.41807999999999995,0.5995919670909543,-0.7349399999999999,1.0799231699523812,0.41212,1.0548816388581232,-0.25220000000000004,0.8751827694830377,0.025800000000000024,2.2598999236691877,1
0.6778,0.8524879353985017,-0.029649999999999982,0.7428156736364682,-0.9028,0.6701958072086097,-0.52865,0.28644895705867035,0.7853,0.11935962466428926,0.63655,1.5858283781670701,1
1.34916,1.4952794096756634,-0.3267,0.5457049156824593,-0.97532,0.8788299363358079,0.35428000000000004,0.8129133976014912,-1.03008,1.4038834128943898,0.37399999999999994,2.442667458947288,1
0.98482,1.2876963178482728,-0.3523,0.7148244854507994,-0.6965,0.7463337457197015,0.48263999999999996,0.9335452120813431,-0.34574,0.5759393700729271,1.50366,3.3496536168684665,1
0.8858,0.7487773434072375,0.06912000000000003,0.7819127905335735,-0.6037,0.3579743217047837,0.010119999999999995,1.062720580397312,0.16043999999999997,1.8229102866021685,1.0318200000000002,2.514547036147863,1
1.48784,1.4142981008259892,-0.1312,0.7023375150168187,-1.04378,0.8771827671585893,0.49862,1.0014152570237784,-0.532,0.8700901619947211,0.16578000000000018,2.7619380282692805,1
0.92934,0.6922700361853026,-0.28682,0.7460600525426891,-0.71702,0.4044746370293198,0.59466,1.2429334165593906,-0.394,1.0841054376766128,0.5685800000000001,2.4728340556939927,1
0.795,0.38932303425304804,-0.27984,0.7578948231779922,-0.61184,0.37697594485590197,0.09577999999999998,1.2037571565727034,0.0005799999999999805,1.4902447339279545,1.28582,2.682995498878073,1
0.88408,0.8106659897886429,-0.12022,0.8722487586692227,-0.72606,0.6457549364890678,0.12177999999999996,1.3600618504318103,-0.20566000000000004,0.9767325826448097,0.81118,1.8319779029780903,1
0.9029999999999999,0.5953336249532694,-0.10019999999999998,0.7513399596720516,-0.74536,0.32423854335966906,0.25458000000000003,0.8741096481563396,0.02536000000000003,0.8261907243488031,-0.04291999999999998,3.2235523661017202,1
0.64436,0.35386949995725825,0.02108000000000001,0.6359184200823247,-0.65112,0.17329537501041395,0.32252000000000003,0.761172534317943,0.31636,1.2626839125450202,-0.14612000000000008,2.7671805293475162,1
0.53762,0.3515994766776538,-0.24098000000000003,0.5915243503018283,-0.45402,0.4548253477984709,0.1384,0.5203047424346621,0.20088,1.6708383814720085,0.5148199999999999,2.940517572979288,1
0.574525,0.44991731369960264,-0.46185,0.7019853678437085,-0.57375,0.5615075095965621,-0.08547499999999998,0.6414294108993339,0.983,1.7612016901347027,-0.21762499999999985,3.1826835201079398,1
0.3966,0.550553339831846,-0.2855,0.28496403281817867,-0.3432,0.779090251511338,0.41324999999999995,1.7634536016011308,2.0819,3.150019288829832,0.92035,0.3164302845809799,1
1.0438399999999999,0.9740768619570018,-0.5986,0.7468509523325253,-1.00006,0.8268056984564148,0.02681999999999999,0.9153137123412934,0.08694,1.1649224751029574,0.13276000000000007,2.2099394240566865,1
0.8693,0.9207836825226651,-0.31449999999999995,0.7240784108092161,-0.7710600000000001,0.6942085731248211,0.18803999999999998,1.0434340530191641,-0.01195999999999997,1.388499329492096,0.5440600000000001,2.4006663716560035,1
0.86108,0.6727720691289137,-0.20952,0.544418278532233,-0.66236,0.46904028398422243,0.2998,0.6117616774529114,-0.009260000000000013,0.7839083766614565,-0.32823999999999987,3.107576333414837,1
0.7502,0.3092438924214996,-0.30296,0.45554193330581544,-0.6606,0.24073364949670004,0.28222,0.7135783502881796,0.25856,0.5663596807683259,-0.21044000000000002,2.6250800203041433,1
0.52298,0.5654161626625118,-0.32746,0.5121434642753923,-0.40843999999999997,0.5457101639148753,0.13374000000000003,0.6105165337646474,0.55724,0.9830008636822248,0.42539999999999994,2.7587689446562935,1
0.8444200000000001,0.7866929655208568,-0.3449,0.4839219616839062,-0.7614,0.724774026852508,-0.09434000000000002,0.974716078147888,0.56954,1.450178028036558,-0.16982000000000003,2.459743943381099,1
0.60076,0.8859055073764922,-0.13718000000000002,0.6512528671721914,-0.63424,0.7495688981007683,-0.27512,0.9087585223809457,0.49426000000000003,0.9298289912666737,-0.54018,2.1851620104697043,1
0.83246,0.7448768072641274,-0.4747,0.5927723466896883,-0.7537800000000001,0.7237546559435732,0.0879,0.8939019381341556,0.016599999999999993,0.9690246152704275,-0.9258199999999999,2.310455746600657,1
0.8214,0.8806117050096485,-0.47268,0.6322627990005422,-0.7230399999999999,0.7825987113457318,0.24148,0.5729922050080611,-0.00421999999999999,0.8895180419755407,0.27621999999999997,2.1793520911041426,1
0.83576,0.478014312547229,-0.35124,0.5804510168825617,-0.7569,0.40240623131358194,0.3819,0.4877109133492914,0.27614,0.6741394759246783,0.961,3.1306076047630116,1
0.7507,0.09842926394116741,0.18005,0.1154705373677632,-0.7917000000000001,0.03903229432149741,-0.20665,0.719905413926024,0.52725,1.4308305717309788,-0.69095,2.906279581354829,1
1.28195,0.6313756449214682,-0.5368,0.13420886706920673,-0.9904,0.41577878733768997,0.11065,0.23977990950035827,-0.9922,0.31211693321574213,-2.47275,1.6162339697580916,1
0.63038,1.0662302762536806,-0.40587999999999996,0.43160974502436805,-0.58324,0.9245508006594337,0.37026,0.8907873921424797,-0.05026000000000001,1.1897329376797132,0.12633999999999995,1.9719177525951737,1
1.11808,0.8836062794027665,-0.4889800000000001,0.7352159118245469,-0.9048399999999999,0.7147901216441088,0.40780000000000005,0.8676647336385178,0.012080000000000025,1.0112100706579221,0.8811199999999999,2.7819651385306754,1
0.60918,0.37745624514637455,-0.1068,0.46615584840265595,-0.6163399999999999,0.49698774934599743,-0.030700000000000015,0.7173951944360932,0.7124400000000001,1.1699880866914842,0.10377999999999998,2.697568486062958,1
0.5745,0.6537126738866242,-0.08580000000000003,0.6081075603871408,-0.54004,0.5864073098111926,-0.005059999999999998,0.5543397000035266,0.8492799999999999,0.8185217999540392,-0.7161199999999999,2.2360243261199106,1
0.9408,0.922505647679189,-0.31135999999999997,0.5031861961540678,-0.78612,0.6498593363182528,-0.13488000000000003,0.6612800594301933,0.03418000000000001,1.7774797318113083,-0.68134,1.7614956054444189,1
0.9762599999999999,0.7261156161383667,-0.22683999999999999,0.684278753871549,-0.66184,0.6715588827496811,0.67448,1.0185636980572201,-0.5579,1.188099126756686,0.38438000000000005,2.0167802872400356,1
0.9367600000000001,0.6145536372034585,-0.36482000000000003,0.5869250693231632,-0.5836,0.5359458834621271,0.11861999999999999,0.6288925560061909,-0.33715999999999996,1.3058710629307932,0.9338000000000001,2.7102656032204666,1
0.9395200000000001,0.7760546675331578,-0.4464,0.6422783197337428,-0.84942,0.7531121310933717,0.0029199999999999448,1.4029834753125212,-0.05846,1.6189451605906855,-0.29879999999999995,2.6023579413677895,1
0.9669000000000001,1.1620613494992422,-0.22490000000000002,0.7413592280399564,-0.72658,0.8041287875707472,0.11678000000000002,0.9432253903495176,-0.44212000000000007,1.9628224848416629,0.037680000000000026,2.4674468458307266,1
0.98126,0.4115870539752193,-0.16062000000000004,0.5288369994620271,-0.69414,0.3186580502670535,0.26496,0.7773212611269551,-0.15462000000000004,1.1317955742977617,-0.13537999999999997,3.0799790635652053,1
0.6093500000000001,0.27103402922880365,-0.73585,0.41033406512255355,-0.33630000000000004,0.10507606768432094,0.76315,0.3714431921572935,0.16394999999999998,0.312329065250098,1.50225,3.8696418600433815,1
0.66294,0.4321167238142953,-0.14948,0.5540514569965501,-0.75118,0.4716177392762066,-0.37732,0.5743878541543161,1.11258,1.2006704510397515,-0.3922800000000001,2.6732412530484413,1
0.5729,1.0095336621430708,-0.42325999999999997,0.7349704708353936,-0.63458,1.006876972127181,-0.19727999999999998,0.6753341558073307,0.45754,0.7691632876054343,-0.4097199999999999,2.8335823019633644,1
1.36834,1.482793769544504,-0.25364,0.6590078171008292,-0.9126199999999999,0.8190262492741,0.5376800000000002,0.9995543842132854,-1.1788199999999998,1.978397378435384,1.517,3.4496211734044073,1
0.6113,0.5575569926025501,-0.17158,0.5723756738366857,-0.56224,0.591065730693296,-0.03297999999999999,0.412480353471532,1.0379,1.3603857302250713,-0.08539999999999992,2.912750978885768,1
0.3877,0.7455525870118083,-0.09214,0.7767549053594706,-0.5236799999999999,0.749650223104082,0.024040000000000006,0.8530908322095603,-0.13845999999999997,1.1646774738098098,-0.7576999999999999,2.4518739231453153,1
0.9654,0.8073382067015038,-0.17400000000000002,1.0566014953614253,-0.8020799999999999,0.5901879251560471,0.2803,1.3492839638119174,-1.5730600000000003,1.7596480764630185,0.15764,3.2588596169519177,1
0.6479999999999999,0.46427695936800484,-0.19110000000000002,0.5923687238536485,-0.57866,0.3728936148554974,0.013759999999999994,0.35171416377507464,0.88046,0.8677888268467162,-0.11112000000000011,3.537226168482869,1
0.34703999999999996,0.5183790389280802,-0.3119,0.785107206055326,-0.40108,0.6078360362795218,-0.32354,0.8316388176365987,1.3222999999999998,1.685424719469843,-0.36350000000000005,2.469046399928523,1
0.91892,1.1210388851418134,-0.60548,0.790403395109105,-0.9561400000000001,0.9468458971765152,0.13548,1.190001391595825,-0.05981999999999994,1.8085775382880325,0.11015999999999995,2.4984088722625044,1
0.68468,0.7351880487331116,-0.31392,0.801119695800821,-0.74066,0.6439928283762173,0.01846000000000002,0.6936305846774636,-0.6179,1.1079928136048538,0.6965399999999999,3.3807761554116533,1
0.8432999999999999,0.7042971863259618,0.019224999999999992,0.6909231427348969,-0.61465,0.5335614709977974,0.10775,0.48710374322793565,0.2012750000000001,1.4924616742706216,0.24387500000000006,2.4373806601554873,1
0.6895800000000001,0.36734098872845655,0.10322,0.6036427975218457,-0.64686,0.2550597047751761,0.24874000000000002,0.7505333989903448,0.1874,0.6735907771043188,-0.3891400000000001,3.370702465065702,1
0.38142,0.5516051187217175,-0.33658,0.5496948671763272,-0.36256000000000005,0.6415245809787806,-0.18545999999999999,0.6253425485284044,0.61332,1.4202958906509586,-0.05240000000000009,2.599869171708453,1
0.64454,0.8320265518599752,-0.46399999999999997,0.9045948153731592,-0.8217000000000001,0.9630900892439919,0.03678000000000002,0.872483493826674,1.33414,1.6966315504551954,-0.24168000000000003,2.177975790039917,1
0.65186,1.0191059920341947,-0.33764000000000005,1.074773507768032,-0.74732,0.9122959645860547,-0.26938000000000006,0.7984987833428427,-0.030440000000000012,0.39002549019262833,-0.51936,2.0205952150294726,1
0.84376,1.0383846628297242,-0.44718,0.7845447514323195,-0.93108,0.86961113550828,-0.045219999999999996,0.490085974090261,-0.5986800000000001,1.2505866711267957,-0.5544600000000001,1.8664465537485933,1
0.81694,0.6664407948197649,-0.15797999999999998,0.6899574566594668,-0.5199,0.4258508835261469,0.25672,1.0308287379579597,-0.66902,1.0498249744600288,0.44688,3.3552434176971424,1
0.93414,0.6738176927033008,-0.2945,0.4930519495955776,-0.67744,0.4860646129888495,0.57984,0.9568635315445981,-0.34696,0.7307958353740119,1.61722,3.250015059503571,1
0.59692,0.3247260491552841,-0.04134000000000001,0.5800653609723649,-0.5630200000000001,0.36690822013141106,-0.23392,0.5078436048627569,0.6060800000000001,1.2741484419014921,0.24021999999999996,2.7200478795418292,1
0.5803200000000001,0.23621481113596582,-0.20698,0.6115028511789623,-0.52744,0.37982670127309376,-0.09718,0.5439904475264249,0.46868,1.3396578805799635,-0.5577,2.7916909042728926,1
0.6562,0.5530258357436839,-0.4345,0.6237782258142713,-0.55286,0.5647386059054225,-0.26799999999999996,0.4641677067612524,1.22562,1.6711223943804956,-0.9101000000000001,2.690581517999408,1
0.7260249999999999,1.0203422575293057,-0.36707500000000004,0.8301109218050321,-0.8035,1.0077601731893688,-0.348775,0.7082877681422997,0.691525,1.201848288748071,-0.3002,2.499694086616734,1
0.9807500000000001,1.6040717331216832,-0.6574,0.34916932854991717,-0.6565,1.2555388006748338,0.57075,0.04857823586751581,-0.74315,0.32449130188650666,-1.44515,2.4781971360244928,1
0.50684,1.2211894234720508,-0.30836,0.6753930026288398,-0.5042199999999999,0.9097889216735934,0.17514,0.8239933573761381,0.33920000000000006,1.0305961988092134,0.08438000000000004,1.9446934442219934,1
1.07914,1.2858844827588518,-0.45568,0.7205684540694243,-0.82104,0.850879772940925,-0.06241999999999999,1.0559720720738783,0.4379799999999999,1.143979026031509,-0.10523999999999996,1.8742937611271078,1
0.92676,1.347610898219512,-0.09508000000000001,0.8183717016124152,-0.65606,0.7052148133724929,0.20658000000000004,1.0507873367147131,-0.05020000000000004,1.2662863815109124,-0.2974,2.3047293496200374,1
1.13544,1.5374935212871632,-0.53542,0.8260504445855591,-0.72812,0.8236916516512718,0.16194000000000003,0.7807264008601221,0.13238,1.1329097170560414,-0.9232199999999999,2.4270654156820743,1
0.36533999999999994,0.7744252371920739,-0.36384,0.5793040980348749,-0.32592,0.7285843238774767,0.09840000000000002,0.827493688797685,0.54122,1.243276182913515,-0.07869999999999999,2.2573380794643945,1
0.67708,0.8248407979725543,-0.35462,0.6548207594449034,-0.7299,0.7681659553768313,-0.31457999999999997,0.5863337249382812,1.26602,1.1580181937258154,-0.18036000000000002,2.3026582981415196,1
0.4619,0.3847027878765632,-0.08646000000000001,0.6220292460969983,-0.42606,0.41370645752755664,-0.14482,0.6928246942769867,0.65608,1.2768093033025723,-0.6413399999999999,2.5207234552802493,1
0.6797,0.48977574970592413,-0.41714,0.5697775732687274,-0.6152599999999999,0.4372630192458539,0.11280000000000001,0.8291144130938746,0.35519999999999996,1.2619918086104998,-0.53378,2.3165254783835207,1
0.34726,0.3742640752196235,-0.40237999999999996,0.5099675352412152,-0.41308,0.6652570909054634,-0.16832000000000003,1.0501120259286625,1.1614,1.463974048608786,0.23052,2.564124940793642,1
0.48035999999999995,0.3893041972545377,-0.08782000000000002,0.5988762367968862,-0.5099400000000001,0.3370475678594937,-0.17964000000000002,1.0369231471039693,1.22242,1.8135585507504302,0.24442000000000003,2.628262358859937,1
0.47004999999999997,0.13371389232237615,-0.27165,0.7402700892241966,-0.5976,0.3415325753131024,0.7419500000000001,0.2216779759019826,0.8866,0.9434218674590917,-2.2112499999999997,1.9323107009484781,1
0.589075,0.595276699667194,-0.350475,0.676497067621139,-0.499675,0.7816810789360753,-0.048024999999999984,0.5315821001187556,0.426125,0.9111039837288971,0.36945000000000006,3.2273063706441008,1
0.36602,0.7200443368293372,-0.43100000000000005,0.6370944749407265,-0.41992,0.8021512494536177,0.21062000000000003,0.9035514163565901,-0.026880000000000077,1.572636123519996,0.10362,2.155320217972262,1
0.59548,0.6068233037713697,-0.31112,0.5320261619507071,-0.72564,0.760779628407596,-0.11972000000000001,0.44465768519165394,1.37506,1.4519549504030764,0.11753999999999998,2.215270103847384,1
0.5401,0.6366218029568262,-0.18516,0.5849030458118679,-0.5383,0.6797568425547477,0.056400000000000006,0.43559043263138825,0.37099999999999994,1.1490629203833878,-0.7205199999999999,2.3389111541484424,1
0.73774,0.4906490833579535,-0.40584,0.5499197786950384,-0.7054,0.4541316604245954,-0.1476,0.4690427112747836,0.37666,1.0044100422636166,-0.7270800000000001,2.539352373539364,1
0.40378,0.5004569831663856,-0.33696000000000004,0.5224579533321317,-0.32068,0.5475653586559325,-0.01040000000000001,0.5136115896278043,0.6535599999999999,1.0634416100567066,0.50588,2.9567734038982425,1
0.59218,0.21827438466297414,-0.21856,0.4390238296493711,-0.6452,0.3700140267611486,-0.05247999999999995,0.9454929915128932,0.7734400000000001,1.3283452141668597,-0.003499999999999992,2.338139492203149,1
0.5214000000000001,0.42384030011314405,-0.18241999999999997,0.5760041987694187,-0.5248,0.34675510810945526,0.08932,0.7474429188908007,0.32754,0.5188479623165152,-0.60232,2.8974441456221376,1
0.50304,0.16518738753306805,-0.27656000000000003,0.6070852930190288,-0.49973999999999996,0.1561452785069084,0.4925,0.9482012576452321,0.13300000000000003,0.7758336258502851,0.10911999999999995,2.584933832228593,1
1.08262,0.597165410083337,-0.45342000000000005,0.7180659489211281,-0.87568,0.4495070766962406,0.31598000000000004,0.6957880330962871,0.26186000000000004,0.6105970790955358,0.9700600000000001,2.8931497080171984,1
0.94296,0.8630946865784773,-0.03250000000000004,0.8912070354300397,-0.7102999999999999,0.5889660601426877,0.03836000000000002,1.1538275924071153,0.12455999999999996,1.0049733643236523,0.35344,2.200985036977762,1
1.19995,0.9991422504662021,-0.07917500000000001,0.6090185020451623,-0.890925,0.4358544510498889,0.37477499999999997,0.9594751738146572,0.328475,0.8299526507578611,-1.415575,1.634970983177785,1
0.59848,0.22685020828731894,-0.4253,0.651745425760703,-0.47374,0.22519769759036173,0.31404,0.8622984013669514,0.14123999999999998,1.374945565467957,1.04736,3.215575387547305,1
0.9375600000000001,1.2753618694315745,-0.15284,0.8383137527203046,-0.71864,0.8201429405902363,0.14418,1.171268684802936,-0.071,1.2386468241593322,0.3592000000000001,2.166919002870204,1
1.45898,1.305893375050199,-0.30076,0.6042958654500293,-0.95496,0.7520382523515675,0.30518,0.9561387671253583,-0.45508,1.0814508712835733,-0.3351200000000001,2.3388856421381528,1
0.54058,1.1714591444006914,-0.3599,0.6159281492187219,-0.51622,0.8662458813754903,0.42468000000000006,1.0338556098411422,-0.14214,1.0736167370155887,-0.004860000000000042,2.075702351735431,1
0.8356600000000001,1.1837897186578366,-0.33098,0.5525892660919138,-0.8773800000000002,0.8604463068663843,-0.1011,0.9427852512635102,0.5721999999999999,1.4855987967819575,0.13575999999999994,2.2245271740304724,1
0.74908,1.261498076494768,-0.12222,0.7946226381119532,-0.59342,0.7718720211278551,-0.04246000000000001,0.6317881709877132,0.24966,1.259805404814569,-0.542,2.1641127593080727,1
0.84364,1.0062472797478759,-0.45718,0.6588951942456402,-0.79294,0.7843286001415479,-0.030740000000000007,0.6091459496705203,0.42302,1.3608723073822908,-0.8001400000000001,2.328757237884619,1
0.4500400000000001,0.537503435337859,-0.3665,0.5144526071466642,-0.43084,0.5188055782275284,0.10444000000000002,0.7761490501185968,0.41126000000000007,0.7389054763635198,0.5691400000000002,2.719909902551921,1
0.73682,0.1107592524351803,-0.031080000000000017,0.7103819901996391,-0.6530400000000001,0.05947195137205436,0.18536,1.0769850384290396,0.34224,0.998698487031997,0.27485999999999994,2.4515761232317463,1
0.7538,0.4100439549609285,-0.22723999999999997,0.6990015865504169,-0.69906,0.23762397395885798,0.26372,0.848120708979565,0.21613999999999994,0.8815738556695065,-0.23406000000000002,2.8426106439327916,1
0.08474999999999999,0.29026733367707774,-0.0824,0.5683724307177469,-0.20505,0.47510504627924127,0.41235,0.8630238264381812,0.9211499999999999,1.4585491575534915,-0.18725,0.11589480143647514,1
0.99696,0.5568087355636583,-0.5740999999999999,0.4696201177547657,-0.6611800000000001,0.4439798272444369,0.37507999999999997,0.4865758543125625,-0.35668,0.9480124403192186,0.0038399999999999936,2.6712040839291933,1
0.72568,0.3604539665477411,-0.31639999999999996,0.5791045803652394,-0.66656,0.5501945864873626,0.08385999999999998,1.0314114736612154,-0.11522000000000002,0.8020748231929488,-0.49773999999999996,2.7765708568304177,1
0.89172,0.6801085295745083,-0.47124,0.5117730922977487,-0.57356,0.4199298191364838,-0.0025000000000000356,1.2107316796053533,0.3056,0.8132328664042053,-0.06761999999999997,2.5394781564329314,1
1.0053800000000002,0.6440094735328045,-0.47092,0.6693509184276959,-0.82044,0.6176932839201023,0.00718000000000002,1.021695589204534,0.043239999999999994,0.6454394340292511,-0.66166,2.8003123063329918,1
0.7003600000000001,0.2939538024928407,-0.30088,0.46089701344226564,-0.72744,0.5730319170866488,-0.20156000000000002,1.016430072853022,0.36000000000000004,1.7489988722123295,-0.23081999999999994,2.964179633051951,1
0.8169000000000001,0.6867402456533328,-0.4474600000000001,0.6180745165431107,-0.5941000000000001,0.5009763816788172,0.12422000000000004,0.9604258310770282,0.24912,1.0412463046753155,0.13062000000000004,2.889055641035666,1
0.7898799999999999,0.8478039525739426,-0.31662,0.5557692704711192,-0.6412199999999999,0.7067312480710047,0.31502,0.9010164410264666,0.11783999999999999,0.6904515428326596,-0.15709999999999996,2.961070965883797,1
0.81372,0.5279660519389481,-0.48403999999999997,0.8990860487183638,-0.5989800000000001,0.4118575506167151,0.55664,0.8194809778146165,0.15233999999999998,0.8424799689013384,0.64326,3.38401357237231,1
0.9876799999999999,0.7415630634005446,-0.6013400000000001,0.6910019630941725,-0.8225999999999999,0.7317662604957953,-0.18602000000000002,1.190494887431273,-0.015480000000000016,0.4369742807076865,0.3388,3.3838544797316565,1
0.72642,0.7535642454363132,-0.40094,0.6260529474413487,-0.48710000000000003,0.5156769095082695,0.37266,1.0315047857378075,0.36154000000000003,0.6728195880026087,0.07312000000000016,3.400157754722566,1
1.0701,1.0544376321053797,-0.3701,1.0076271631908302,-0.81445,0.6736606304364238,-1.1473,0.70908668017387,0.22755000000000003,1.3745448719485296,-3.10625,0.740411510580434,1
-0.0858,0.33417866478876235,-0.5767500000000001,0.0549421968981947,0.24505,0.23511300474452707,0.9676499999999999,0.32010723984315004,-0.46195,0.245578185106088,1.3470499999999999,0.9184609980832065,1
0.69734,0.7428667397319656,-0.3377,0.7176093505522347,-1.02326,0.7906381112746842,0.08066000000000002,0.8919228430755656,-0.1638,1.6374420737845965,-0.20166000000000003,2.5037359281681444,1
0.6197600000000001,0.6206061818899326,-0.11058000000000001,0.8080780172730847,-0.74974,0.6519440144675,-0.33498,1.6463001843527805,0.89674,0.32834480809051936,1.03248,3.0890210758426364,1
1.08164,0.9157171905124422,-0.32164000000000004,0.5673959182087936,-0.5889599999999999,0.5109722820271174,0.46749999999999997,0.8496700800899136,-0.035099999999999965,1.1164099538252066,-0.21770000000000006,3.082873386955747,1
0.6784600000000001,0.16300434963521676,-0.30752,0.5598388848588495,-0.49746000000000007,0.17739444185204906,0.4805999999999999,0.722635565136397,0.03811999999999997,1.3449955676506893,-0.25670000000000004,2.9795374800461896,1
0.5226599999999999,0.5783396605801819,-0.39258,0.502012232918681,-0.40881999999999996,0.6701410351560334,0.07039999999999999,0.7841205487678538,0.8584799999999999,1.0918815489786426,0.22429999999999994,3.1053066096603086,1
0.64012,0.6371371532095739,-0.36761999999999995,0.5496592735504423,-0.69198,0.6516872041094562,-0.46387999999999996,1.091364303062914,1.76234,2.1517025556521516,-0.33774,2.356168731861112,1
0.6205,0.8127582328097329,0.57358,0.4106656693710834,-0.55606,0.5644276640987754,-0.65104,0.9014504107270682,0.43962,0.7739619028091757,-0.42544000000000004,3.724317123715434,1
1.37602,1.2077996220400138,0.026020000000000022,0.6754531493745514,-0.5117,0.6051857566070107,0.42363999999999996,1.5976703862186346,0.028779999999999938,1.986399840666526,-0.37838000000000005,2.8063043459325647,1
0.9530800000000001,0.8320420734554234,-0.16992,0.6962597446355777,-0.63574,0.6392133783018,0.52086,1.033860419979409,-0.08517999999999999,1.757927956999376,0.70756,2.3462898228905993,1
0.84344,0.33013485577866514,-0.40847999999999995,0.6782525539944542,-0.38126000000000004,0.2038814067049764,0.16528,0.9730597037181223,0.22066,1.3979419258324002,1.27962,3.2598667069375704,1
0.7498,0.03662813126546309,0.3009,0.13364318164425745,-0.51715,0.10585388514362612,-0.40889999999999993,1.2080212249790976,0.9601000000000001,1.913572371247035,-1.39215,2.3377657292808447,1
0.6195999999999999,0.21213784433711963,-0.29446,0.652655673383753,-0.49582,0.3787206912752457,-0.12329999999999999,0.5130220852945807,1.0824200000000002,1.5721718710115635,-0.48843999999999993,2.720886852296508,1
0.56476,0.35330322387433716,-0.31898,0.5246067069719944,-0.40112000000000003,0.4475243702861332,0.19598,0.597085527374429,0.40987999999999997,0.4711607920869478,0.8209800000000002,3.2155230697353114,1
0.72576,0.22875638351748787,0.11711999999999997,0.5896727795989908,-0.54392,0.18511249822742926,-0.19816000000000003,1.0945281919621805,1.5752200000000003,1.9214312925525077,0.20564,2.5307640788900096,1
0.4854,0.17392939659528517,-0.08164000000000002,0.4997786840192367,-0.4659000000000001,0.22875865010967347,0.27665999999999996,0.8923825093534723,0.61244,1.3065178464146594,-0.70286,3.0452653863005112,1
0.58278,0.2370510535728538,-0.23601999999999998,0.4816255827922765,-0.52296,0.27469254267271254,0.10230000000000002,0.8119201069070774,1.44694,1.7104092443038303,-0.39402000000000004,2.758318586023014,1
0.59856,0.38036610390517184,-0.28328,0.6350890701311116,-0.34402,0.3992424225955954,0.31201999999999996,1.0178340984659533,0.39708,1.0434779116013908,0.8837800000000001,2.9383130410152014,1
0.6430400000000001,0.12100234708467435,-0.08058,0.53525828998718,-0.5833999999999999,0.214825894621668,-0.23407999999999998,0.7149442754508913,0.859,0.9608503837747062,0.16481999999999997,2.5112600227774107,1
0.9685600000000001,0.34741076983881775,-0.06128,0.7665126691712277,-0.61558,0.25149924850782357,0.22701999999999994,0.9171502886659306,0.55202,1.1658592655205,-0.47408,2.9665263781062188,1
0.8572200000000001,0.722886659165875,-0.25354,0.6913679830596728,-0.53274,0.40029162244543665,0.5284800000000001,0.9764155862131657,0.14338,1.1184391252991823,0.12761999999999996,2.3667965875841546,1
1.12646,0.7293523654585621,-0.45386,0.7521408631366866,-0.72416,0.22395722359414977,0.26176000000000005,0.6487493799611681,0.10722000000000001,0.7693868643276931,0.8472200000000001,2.976556769490547,1
0.845975,0.24001746290634776,-0.25192500000000007,0.6741447340890531,-0.64355,0.2140893972152755,0.36634999999999995,1.2224318399540048,-0.011699999999999988,1.108556490817375,0.4596250000000002,2.8249977668132766,1
1.0917666666666668,1.209551988685618,-0.07473333333333333,0.33687513017931936,-0.7091,0.7898874540084809,0.7151666666666667,1.3910356190023796,0.2709666666666667,1.1887908576925268,-0.6731666666666668,1.2934764564279218,1
1.0909600000000002,0.8859258507346989,-0.36734,0.8439764054758877,-0.82868,0.7483113636715668,0.25210000000000005,1.6794504115930304,-0.72276,1.9423223542965262,1.3205,2.6522038694263306,1
0.8062799999999999,0.8597792897017235,-0.05248000000000001,0.7149509437716689,-0.7782,0.7018993766915597,-0.24319999999999994,1.1876619573767613,-0.3088,1.2311486201917297,0.08897999999999999,1.8922208267007317,1
1.2374399999999999,0.9569278933127616,-0.07582,0.3993005284243937,-0.73896,0.5595235231873634,0.48772000000000004,1.4661004218674791,-0.25952,1.1285545875144898,-0.11715999999999997,2.253655705293069,1
0.94642,1.3017499978874592,-0.07576000000000002,0.49324343178596913,-0.47358,0.5547777230567211,0.14756000000000002,1.287806615140643,-0.06995999999999994,1.49783507202896,-0.24714,1.3417898412195555,1
0.8337600000000001,1.0683940719603418,-0.13344,0.6032303730748312,-1.03402,0.7493365578963833,-0.16948000000000002,0.8196358105890689,-1.10336,2.453020952417651,0.24974,3.0242303637454606,1
-0.34612,0.17463393713708686,0.055099999999999996,0.33576357753633734,-0.83802,0.5548837598993144,-0.13582,0.748046356852301,-0.34906000000000004,0.8868625135837008,-0.02751999999999999,0.875054802283834,1
0.46597999999999995,0.5612769610450797,-0.22949999999999998,0.5242688527845231,-0.82578,0.38470617619164893,-0.15248,1.3947075758021823,1.2437799999999999,1.8382521132858791,-0.47112,1.9101369026852497,1
0.72506,1.1597643049344122,-0.39522,0.6775773402350466,-0.4947799999999999,0.9498871733000714,0.24034000000000005,0.7915063758429239,0.03522000000000004,1.354654857149968,-0.23864000000000002,2.3879343977588667,1
0.98282,0.9787910154879845,-0.3162,0.7429515529292606,-0.6804399999999999,0.6881955703141368,0.07686000000000001,0.7245631532171644,0.43572000000000005,2.0592855744165255,0.40096,2.6391470095468343,1
0.47298,0.4171769312893512,-0.10056000000000001,0.7950969991139446,-0.4455,0.4605503555530057,-0.20298000000000002,0.7754229761878351,0.35808,0.6861247095098675,-0.9541000000000001,2.8695150644316194,1
1.04962,1.2896102636067999,-0.003620000000000001,0.9066588592188354,-0.63442,0.6678024236254313,0.04632000000000005,1.4866550800370608,0.11498,0.5115938203301521,0.09852000000000002,1.9607885727431194,1
1.14574,1.4119539645470034,-0.39038,0.7806116236644186,-0.74688,0.7766010925822858,0.18872,0.832022380708596,-0.66136,1.4329154085290587,-0.99358,2.3872977740533337,1
0.7206000000000001,1.4060386498955142,-0.45671999999999996,0.7402122986008811,-0.56732,1.0924191192028818,0.31672,1.220750739094595,0.15758,1.2381399383753033,0.09394,2.103735995318804,1
0.70326,0.958225676967592,-0.42210000000000003,0.6946357282777788,-0.8894400000000001,0.9121277860036937,-0.20793999999999996,1.0209815537021223,0.7679799999999999,1.4099221670007176,-0.29786,1.7048930473786326,1
0.73082,1.3448189495244331,-0.0037799999999999835,0.5052990322571378,-0.53094,0.7102232803844154,0.18089999999999998,1.1429144303052612,0.5137400000000001,1.3745649431729299,-0.57018,1.9124571085386466,1
1.06022,1.2025937622489151,-0.25354,0.48722356572727477,-0.7901,0.8581867599771044,0.17606000000000002,0.990468388188134,-0.27702,1.9915187187169496,-0.94862,2.4921885837552504,1
0.46588,0.6290008640693588,-0.46720000000000006,0.6562195402454882,-0.28254,0.6304711952183065,0.14232,0.6131975595189532,0.8625,1.041542193096372,0.6102999999999998,3.065398540157543,1
0.56748,0.3593312635994814,-0.32876,0.5614457836692693,-0.7095800000000001,0.6159171307895243,-0.7768200000000001,0.7990153797017927,1.02566,1.641628510960991,0.6856999999999999,2.8076583704218714,1
0.45702,0.31989596277539983,-0.16950000000000004,0.7405615571983197,-0.62852,0.2923105660081415,0.34098000000000006,0.9971627359664018,0.7241,1.5401532099112736,-1.3614799999999998,2.2169950308920403,1
0.9560599999999999,0.2714140066393037,-0.35936,0.7557705756378718,-0.7593399999999999,0.31174667279700036,-0.35374,0.5730383390315171,0.04234000000000001,1.018148195500046,-0.08939999999999992,3.823826922076887,1
0.6311333333333333,0.44600495886630376,-0.023166666666666707,0.8277884351290089,-0.5655,0.4981538617736493,0.2650666666666666,0.5498408163580922,0.37989999999999996,0.9696357099447194,0.45523333333333343,4.416637741917865,1
1.4363,0.7522201938262492,-0.9755499999999999,0.08987327188881014,-0.86895,1.0856210411557063,1.27565,1.6320731616566704,-0.36625,0.7802923330393552,-0.07275000000000009,5.2620765335559305,1
1.0529199999999999,1.3131008422813535,-0.21082,0.9273637511785762,-0.72496,0.786548477844818,0.10835999999999997,1.385233526521792,-0.16977999999999996,1.0342789913751513,0.43832000000000004,2.4436685745002324,1
